"","uid","pressTimes","trialStartTime","choice","coinsRunningTotal","trialEndTime","trialEffortPropMax1","pressCount","trialNo","trialEffort2","condition","choiceRT","trialReward2","effortTimeLimit","trialReward1","trialEffortPropMax2","trialEffort1","trialSuccess","meanPressLag","taskCond","intCond","studyStartTime","totalTimeJsPsych","nTrials","ID","deltaReward","deltaEffort","effortChosen","effortUnchosen","deltaEffortSigned","higherEffChosen","highEffortOption","rewardChosen","rewardUnchosen","higherRewChosen","highRewardOption","taskNo","group","maxPressCount"
"1","subREX_1","see raw data",206212,"route 1",0,236051,0.95,44,0,20,"baseline",8323,3,10000,7,0.35,55,0,199.418604651163,"rew-eff","psychoed","14:36:16",1305438,88,1,4,0.6,0.95,0.35,0.6,1,0.95,7,3,1,7,1,"psychoed",58
"2","subREX_1","see raw data",0,"route 1",7,1561293,0.95,55,0,20,"psychoed",427352,3,10000,7,0.35,55,1,161.581818181818,"rew-eff","psychoed","14:36:16",1305438,88,1,4,0.6,0.95,0.35,0.6,1,0.95,7,3,1,7,2,"psychoed",58
"3","subREX_1","see raw data",236051,"route 2",4,253825,0.95,45,1,44,"baseline",3601,4,10000,7,0.75,55,1,156.136363636364,"rew-eff","psychoed","14:36:16",1305438,88,1,3,0.2,0.75,0.95,-0.2,0,0.95,4,7,0,7,1,"psychoed",58
"4","subREX_1","see raw data",1561293,"route 1",14,1579265,0.95,56,1,44,"psychoed",1785,4,10000,7,0.75,55,1,158.854545454545,"rew-eff","psychoed","14:36:16",1305438,88,1,3,0.2,0.95,0.75,0.2,1,0.95,7,4,1,7,2,"psychoed",58
"5","subREX_1","see raw data",1579265,"route 2",20,1594588,0.2,32,2,32,"psychoed",2551,6,10000,4,0.55,12,1,175.354838709677,"rew-eff","psychoed","14:36:16",1305438,88,1,2,0.35,0.55,0.2,0.35,1,0.55,6,4,1,6,2,"psychoed",58
"6","subREX_1","see raw data",253825,"route 2",10,270348,0.2,32,2,32,"baseline",4569,6,10000,4,0.55,12,1,150.09375,"rew-eff","psychoed","14:36:16",1305438,88,1,2,0.35,0.55,0.2,0.35,1,0.55,6,4,1,6,1,"psychoed",58
"7","subREX_1","see raw data",270348,"route 2",14,283970,0.75,13,3,12,"baseline",4485,4,10000,5,0.2,44,1,152.692307692308,"rew-eff","psychoed","14:36:16",1305438,88,1,1,0.55,0.2,0.75,-0.55,0,0.75,4,5,0,5,1,"psychoed",58
"8","subREX_1","see raw data",1594588,"route 1",25,1611712,0.75,45,3,12,"psychoed",2333,4,10000,5,0.2,44,1,158.244444444444,"rew-eff","psychoed","14:36:16",1305438,88,1,1,0.55,0.75,0.2,0.55,1,0.75,5,4,1,5,2,"psychoed",58
"9","subREX_1","see raw data",283970,"route 1",19,300960,0.75,44,4,55,"baseline",3070,7,10000,5,0.95,44,1,153.477272727273,"rew-eff","psychoed","14:36:16",1305438,88,1,2,0.2,0.75,0.95,-0.2,0,0.95,5,7,0,7,1,"psychoed",58
"10","subREX_1","see raw data",1611712,"route 2",32,1630204,0.75,55,4,55,"psychoed",2201,7,10000,5,0.95,44,1,161.581818181818,"rew-eff","psychoed","14:36:16",1305438,88,1,2,0.2,0.95,0.75,0.2,1,0.95,7,5,1,7,2,"psychoed",58
"11","subREX_1","see raw data",1630204,"route 1",32,1654928,0.95,53,5,32,"psychoed",3068,3,10000,6,0.55,55,0,163.846153846154,"rew-eff","psychoed","14:36:16",1305438,88,1,3,0.4,0.95,0.55,0.4,1,0.95,6,3,1,6,2,"psychoed",58
"12","subREX_1","see raw data",300960,"route 2",22,318599,0.95,33,5,32,"baseline",5285,3,10000,6,0.55,55,1,158.375,"rew-eff","psychoed","14:36:16",1305438,88,1,3,0.4,0.55,0.95,-0.4,0,0.95,3,6,0,6,1,"psychoed",58
"13","subREX_1","see raw data",318599,"route 2",28,335255,0.55,45,6,44,"baseline",2684,6,10000,4,0.75,32,1,151.204545454545,"rew-eff","psychoed","14:36:16",1305438,88,1,2,0.2,0.75,0.55,0.2,1,0.75,6,4,1,6,1,"psychoed",58
"14","subREX_1","see raw data",1654928,"route 2",38,1672018,0.55,45,6,44,"psychoed",2551,6,10000,4,0.75,32,1,162.568181818182,"rew-eff","psychoed","14:36:16",1305438,88,1,2,0.2,0.75,0.55,0.2,1,0.75,6,4,1,6,2,"psychoed",58
"15","subREX_1","see raw data",1672018,"route 2",44,1689974,0.2,55,7,55,"psychoed",2218,6,10000,3,0.95,12,1,158.703703703704,"rew-eff","psychoed","14:36:16",1305438,88,1,3,0.75,0.95,0.2,0.75,1,0.95,6,3,1,6,2,"psychoed",58
"16","subREX_1","see raw data",335255,"route 2",34,355030,0.2,56,7,55,"baseline",4186,6,10000,3,0.95,12,1,149.436363636364,"rew-eff","psychoed","14:36:16",1305438,88,1,3,0.75,0.95,0.2,0.75,1,0.95,6,3,1,6,1,"psychoed",58
"17","subREX_1","see raw data",1689974,"route 2",49,1702896,0.2,20,8,20,"psychoed",2334,5,10000,4,0.35,12,1,164.2,"rew-eff","psychoed","14:36:16",1305438,88,1,1,0.15,0.35,0.2,0.15,1,0.35,5,4,1,5,2,"psychoed",58
"18","subREX_1","see raw data",355030,"route 2",39,370319,0.2,20,8,20,"baseline",4936,5,10000,4,0.35,12,1,153.4,"rew-eff","psychoed","14:36:16",1305438,88,1,1,0.15,0.35,0.2,0.15,1,0.35,5,4,1,5,1,"psychoed",58
"19","subREX_1","see raw data",1702896,"route 1",55,1721870,0.95,56,9,20,"psychoed",2784,3,10000,6,0.35,55,1,156.727272727273,"rew-eff","psychoed","14:36:16",1305438,88,1,3,0.6,0.95,0.35,0.6,1,0.95,6,3,1,6,2,"psychoed",58
"20","subREX_1","see raw data",370319,"route 1",45,389194,0.95,55,9,20,"baseline",3135,3,10000,6,0.35,55,1,156.833333333333,"rew-eff","psychoed","14:36:16",1305438,88,1,3,0.6,0.95,0.35,0.6,1,0.95,6,3,1,6,1,"psychoed",58
"21","subREX_1","see raw data",1721870,"route 1",59,1735475,0.35,21,10,12,"psychoed",2817,3,10000,4,0.2,20,1,169.3,"rew-eff","psychoed","14:36:16",1305438,88,1,1,0.15,0.35,0.2,0.15,1,0.35,4,3,1,4,2,"psychoed",58
"22","subREX_1","see raw data",389194,"route 1",49,402382,0.35,20,10,12,"baseline",2784,3,10000,4,0.2,20,1,158.4,"rew-eff","psychoed","14:36:16",1305438,88,1,1,0.15,0.35,0.2,0.15,1,0.35,4,3,1,4,1,"psychoed",58
"23","subREX_1","see raw data",1761735,"route 2",7,1779844,0.55,44,11,44,"psychoed",3517,7,10000,5,0.75,32,1,161.302325581395,"rew-eff","psychoed","14:36:16",1305438,88,1,2,0.2,0.75,0.55,0.2,1,0.75,7,5,1,7,2,"psychoed",58
"24","subREX_1","see raw data",434811,"route 2",7,451768,0.55,44,11,44,"baseline",2768,7,10000,5,0.75,32,1,154.325581395349,"rew-eff","psychoed","14:36:16",1305438,88,1,2,0.2,0.75,0.55,0.2,1,0.75,7,5,1,7,1,"psychoed",58
"25","subREX_1","see raw data",451768,"route 2",13,468740,0.2,44,12,44,"baseline",2600,6,10000,4,0.75,12,1,161.818181818182,"rew-eff","psychoed","14:36:16",1305438,88,1,2,0.55,0.75,0.2,0.55,1,0.75,6,4,1,6,1,"psychoed",58
"26","subREX_1","see raw data",1779844,"route 2",13,1796432,0.2,44,12,44,"psychoed",1983,6,10000,4,0.75,12,1,167.511627906977,"rew-eff","psychoed","14:36:16",1305438,88,1,2,0.55,0.75,0.2,0.55,1,0.75,6,4,1,6,2,"psychoed",58
"27","subREX_1","see raw data",468740,"route 2",18,486797,0.35,55,13,55,"baseline",2484,5,10000,3,0.95,20,1,153.090909090909,"rew-eff","psychoed","14:36:16",1305438,88,1,2,0.6,0.95,0.35,0.6,1,0.95,5,3,1,5,1,"psychoed",58
"28","subREX_1","see raw data",1796432,"route 2",18,1814922,0.35,55,13,55,"psychoed",2184,5,10000,3,0.95,20,1,162.763636363636,"rew-eff","psychoed","14:36:16",1305438,88,1,2,0.6,0.95,0.35,0.6,1,0.95,5,3,1,5,2,"psychoed",58
"29","subREX_1","see raw data",1814922,"route 1",19,1834196,0.95,55,14,12,"psychoed",2985,8,10000,1,0.2,55,1,161.872727272727,"rew-eff","psychoed","14:36:16",1305438,88,1,7,0.75,0.95,0.2,0.75,1,0.95,1,8,0,8,2,"psychoed",58
"30","subREX_1","see raw data",486797,"route 2",26,501536,0.95,13,14,12,"baseline",5369,8,10000,1,0.2,55,1,173.583333333333,"rew-eff","psychoed","14:36:16",1305438,88,1,7,0.75,0.2,0.95,-0.75,0,0.95,8,1,1,8,1,"psychoed",58
"31","subREX_1","see raw data",501536,"route 1",30,518676,0.75,45,15,20,"baseline",2568,3,10000,4,0.35,44,1,164.113636363636,"rew-eff","psychoed","14:36:16",1305438,88,1,1,0.4,0.75,0.35,0.4,1,0.75,4,3,1,4,1,"psychoed",58
"32","subREX_1","see raw data",1834196,"route 1",23,1851970,0.75,45,15,20,"psychoed",2801,3,10000,4,0.35,44,1,170.522727272727,"rew-eff","psychoed","14:36:16",1305438,88,1,1,0.4,0.75,0.35,0.4,1,0.75,4,3,1,4,2,"psychoed",58
"33","subREX_1","see raw data",518676,"route 1",36,534232,0.55,32,16,12,"baseline",3001,5,10000,6,0.2,32,1,161.870967741935,"rew-eff","psychoed","14:36:16",1305438,88,1,1,0.35,0.55,0.2,0.35,1,0.55,6,5,1,6,1,"psychoed",58
"34","subREX_1","see raw data",1851970,"route 1",29,1868376,0.55,33,16,12,"psychoed",3218,5,10000,6,0.2,32,1,171.96875,"rew-eff","psychoed","14:36:16",1305438,88,1,1,0.35,0.55,0.2,0.35,1,0.55,6,5,1,6,2,"psychoed",58
"35","subREX_1","see raw data",534232,"route 1",41,553173,0.95,55,17,12,"baseline",2751,3,10000,5,0.2,55,1,160.574074074074,"rew-eff","psychoed","14:36:16",1305438,88,1,2,0.75,0.95,0.2,0.75,1,0.95,5,3,1,5,1,"psychoed",58
"36","subREX_1","see raw data",1868376,"route 1",34,1886700,0.95,56,17,12,"psychoed",2134,3,10000,5,0.2,55,1,164,"rew-eff","psychoed","14:36:16",1305438,88,1,2,0.75,0.95,0.2,0.75,1,0.95,5,3,1,5,2,"psychoed",58
"37","subREX_1","see raw data",1886700,"route 1",34,1911027,0.95,54,18,20,"psychoed",2784,4,10000,5,0.35,55,0,164.207547169811,"rew-eff","psychoed","14:36:16",1305438,88,1,1,0.6,0.95,0.35,0.6,1,0.95,5,4,1,5,2,"psychoed",58
"38","subREX_1","see raw data",553173,"route 1",46,571146,0.95,55,18,20,"baseline",2201,4,10000,5,0.35,55,1,156.727272727273,"rew-eff","psychoed","14:36:16",1305438,88,1,1,0.6,0.95,0.35,0.6,1,0.95,5,4,1,5,1,"psychoed",58
"39","subREX_1","see raw data",571146,"route 1",51,588937,0.95,55,19,12,"baseline",2001,3,10000,5,0.2,55,1,155.944444444444,"rew-eff","psychoed","14:36:16",1305438,88,1,2,0.75,0.95,0.2,0.75,1,0.95,5,3,1,5,1,"psychoed",58
"40","subREX_1","see raw data",1911027,"route 1",34,1935902,0.95,54,19,12,"psychoed",3284,3,10000,5,0.2,55,0,169.566037735849,"rew-eff","psychoed","14:36:16",1305438,88,1,2,0.75,0.95,0.2,0.75,1,0.95,5,3,1,5,2,"psychoed",58
"41","subREX_1","see raw data",588937,"route 1",58,607593,0.95,55,20,32,"baseline",2701,4,10000,7,0.55,55,1,158.854545454545,"rew-eff","psychoed","14:36:16",1305438,88,1,3,0.4,0.95,0.55,0.4,1,0.95,7,4,1,7,1,"psychoed",58
"42","subREX_1","see raw data",1935902,"route 1",41,1954727,0.95,55,20,32,"psychoed",2618,4,10000,7,0.55,55,1,161.327272727273,"rew-eff","psychoed","14:36:16",1305438,88,1,3,0.4,0.95,0.55,0.4,1,0.95,7,4,1,7,2,"psychoed",58
"43","subREX_1","see raw data",1954727,"route 2",47,1968948,0.75,13,21,12,"psychoed",4635,6,10000,7,0.2,44,1,194.5,"rew-eff","psychoed","14:36:16",1305438,88,1,1,0.55,0.2,0.75,-0.55,0,0.75,6,7,0,7,2,"psychoed",58
"44","subREX_1","see raw data",607593,"route 1",65,624667,0.75,45,21,12,"baseline",2318,6,10000,7,0.2,44,1,171.659090909091,"rew-eff","psychoed","14:36:16",1305438,88,1,1,0.55,0.75,0.2,0.55,1,0.75,7,6,1,7,1,"psychoed",58
"45","subREX_1","see raw data",650677,"route 1",4,670901,0.95,56,22,32,"baseline",4034,3,10000,4,0.55,55,1,162.781818181818,"rew-eff","psychoed","14:36:16",1305438,88,1,1,0.4,0.95,0.55,0.4,1,0.95,4,3,1,4,1,"psychoed",58
"46","subREX_1","see raw data",2001443,"route 2",3,2019017,0.95,32,22,32,"psychoed",3819,3,10000,4,0.55,55,1,203.71875,"rew-eff","psychoed","14:36:16",1305438,88,1,1,0.4,0.55,0.95,-0.4,0,0.95,3,4,0,4,2,"psychoed",58
"47","subREX_1","see raw data",2019017,"route 2",3,2042876,0.2,54,23,55,"psychoed",2284,6,10000,4,0.95,12,0,166.111111111111,"rew-eff","psychoed","14:36:16",1305438,88,1,2,0.75,0.95,0.2,0.75,1,0.95,6,4,1,6,2,"psychoed",58
"48","subREX_1","see raw data",670901,"route 2",10,691675,0.2,55,23,55,"baseline",4635,6,10000,4,0.95,12,1,158.703703703704,"rew-eff","psychoed","14:36:16",1305438,88,1,2,0.75,0.95,0.2,0.75,1,0.95,6,4,1,6,1,"psychoed",58
"49","subREX_1","see raw data",691675,"route 2",17,706931,0.35,32,24,32,"baseline",2117,7,10000,3,0.55,20,1,187.161290322581,"rew-eff","psychoed","14:36:16",1305438,88,1,4,0.2,0.55,0.35,0.2,1,0.55,7,3,1,7,1,"psychoed",58
"50","subREX_1","see raw data",2042876,"route 2",10,2058532,0.35,32,24,32,"psychoed",2667,7,10000,3,0.55,20,1,177.15625,"rew-eff","psychoed","14:36:16",1305438,88,1,4,0.2,0.55,0.35,0.2,1,0.55,7,3,1,7,2,"psychoed",58
"51","subREX_1","see raw data",2058532,"route 1",17,2073738,0.35,20,25,12,"psychoed",4054,6,10000,7,0.2,20,1,198.368421052632,"rew-eff","psychoed","14:36:16",1305438,88,1,1,0.15,0.35,0.2,0.15,1,0.35,7,6,1,7,2,"psychoed",58
"52","subREX_1","see raw data",706931,"route 1",24,721354,0.35,20,25,12,"baseline",2885,6,10000,7,0.2,20,1,225.526315789474,"rew-eff","psychoed","14:36:16",1305438,88,1,1,0.15,0.35,0.2,0.15,1,0.35,7,6,1,7,1,"psychoed",58
"53","subREX_1","see raw data",2073738,"route 2",23,2090744,0.2,44,26,44,"psychoed",2268,6,10000,4,0.75,12,1,169.386363636364,"rew-eff","psychoed","14:36:16",1305438,88,1,2,0.55,0.75,0.2,0.55,1,0.75,6,4,1,6,2,"psychoed",58
"54","subREX_1","see raw data",721354,"route 2",30,738194,0.2,45,26,44,"baseline",2251,6,10000,4,0.75,12,1,164.840909090909,"rew-eff","psychoed","14:36:16",1305438,88,1,2,0.55,0.75,0.2,0.55,1,0.75,6,4,1,6,1,"psychoed",58
"55","subREX_1","see raw data",738194,"route 1",38,751517,0.2,12,27,55,"baseline",3918,1,10000,8,0.95,12,1,179.25,"rew-eff","psychoed","14:36:16",1305438,88,1,7,0.75,0.2,0.95,-0.75,0,0.95,8,1,1,8,1,"psychoed",58
"56","subREX_1","see raw data",2090744,"route 2",23,2116555,0.2,52,27,55,"psychoed",4201,1,10000,8,0.95,12,0,173.788461538462,"rew-eff","psychoed","14:36:16",1305438,88,1,7,0.75,0.95,0.2,0.75,1,0.95,1,8,0,8,2,"psychoed",58
"57","subREX_1","see raw data",751517,"route 1",45,768805,0.75,45,28,20,"baseline",2732,6,10000,7,0.35,44,1,165.590909090909,"rew-eff","psychoed","14:36:16",1305438,88,1,1,0.4,0.75,0.35,0.4,1,0.75,7,6,1,7,1,"psychoed",58
"58","subREX_1","see raw data",2116555,"route 1",30,2134811,0.75,45,28,20,"psychoed",3501,6,10000,7,0.35,44,1,168.25,"rew-eff","psychoed","14:36:16",1305438,88,1,1,0.4,0.75,0.35,0.4,1,0.75,7,6,1,7,2,"psychoed",58
"59","subREX_1","see raw data",2134811,"route 2",34,2156073,0.35,56,29,55,"psychoed",4952,4,10000,3,0.95,20,1,161.581818181818,"rew-eff","psychoed","14:36:16",1305438,88,1,1,0.6,0.95,0.35,0.6,1,0.95,4,3,1,4,2,"psychoed",58
"60","subREX_1","see raw data",768805,"route 2",49,788046,0.35,55,29,55,"baseline",3301,4,10000,3,0.95,20,1,159.62962962963,"rew-eff","psychoed","14:36:16",1305438,88,1,1,0.6,0.95,0.35,0.6,1,0.95,4,3,1,4,1,"psychoed",58
"61","subREX_1","see raw data",2156073,"route 1",40,2169525,0.35,20,30,12,"psychoed",2701,5,10000,6,0.2,20,1,183.421052631579,"rew-eff","psychoed","14:36:16",1305438,88,1,1,0.15,0.35,0.2,0.15,1,0.35,6,5,1,6,2,"psychoed",58
"62","subREX_1","see raw data",788046,"route 1",55,801985,0.35,20,30,12,"baseline",2784,5,10000,6,0.2,20,1,199.25,"rew-eff","psychoed","14:36:16",1305438,88,1,1,0.15,0.35,0.2,0.15,1,0.35,6,5,1,6,1,"psychoed",58
"63","subREX_1","see raw data",2169525,"route 2",45,2184698,0.2,33,31,32,"psychoed",2218,5,10000,3,0.55,12,1,175.5625,"rew-eff","psychoed","14:36:16",1305438,88,1,2,0.35,0.55,0.2,0.35,1,0.55,5,3,1,5,2,"psychoed",58
"64","subREX_1","see raw data",801985,"route 2",60,818274,0.2,33,31,32,"baseline",3117,5,10000,3,0.55,12,1,181.3125,"rew-eff","psychoed","14:36:16",1305438,88,1,2,0.35,0.55,0.2,0.35,1,0.55,5,3,1,5,1,"psychoed",58
"65","subREX_1","see raw data",2184698,"route 1",52,2203471,0.95,55,32,12,"psychoed",2635,3,10000,7,0.2,55,1,162.092592592593,"rew-eff","psychoed","14:36:16",1305438,88,1,4,0.75,0.95,0.2,0.75,1,0.95,7,3,1,7,2,"psychoed",58
"66","subREX_1","see raw data",818274,"route 1",60,841950,0.95,54,32,12,"baseline",2102,3,10000,7,0.2,55,0,173.358490566038,"rew-eff","psychoed","14:36:16",1305438,88,1,4,0.75,0.95,0.2,0.75,1,0.95,7,3,1,7,1,"psychoed",58
"67","subREX_1","see raw data",870162,"route 2",7,887668,0.2,45,33,44,"baseline",2901,7,10000,6,0.75,12,1,163.704545454545,"rew-eff","psychoed","14:36:16",1305438,88,1,1,0.55,0.75,0.2,0.55,1,0.75,7,6,1,7,1,"psychoed",58
"68","subREX_1","see raw data",2224713,"route 2",7,2242787,0.2,44,33,44,"psychoed",3119,7,10000,6,0.75,12,1,173.372093023256,"rew-eff","psychoed","14:36:16",1305438,88,1,1,0.55,0.75,0.2,0.55,1,0.75,7,6,1,7,2,"psychoed",58
"69","subREX_1","see raw data",887668,"route 2",12,903023,0.35,32,34,32,"baseline",2368,5,10000,4,0.55,20,1,178.75,"rew-eff","psychoed","14:36:16",1305438,88,1,1,0.2,0.55,0.35,0.2,1,0.55,5,4,1,5,1,"psychoed",58
"70","subREX_1","see raw data",2242787,"route 2",12,2257826,0.35,33,34,32,"psychoed",2301,5,10000,4,0.55,20,1,172.46875,"rew-eff","psychoed","14:36:16",1305438,88,1,1,0.2,0.55,0.35,0.2,1,0.55,5,4,1,5,2,"psychoed",58
"71","subREX_1","see raw data",903023,"route 2",17,922531,0.55,56,35,55,"baseline",3485,5,10000,4,0.95,32,1,158.545454545455,"rew-eff","psychoed","14:36:16",1305438,88,1,1,0.4,0.95,0.55,0.4,1,0.95,5,4,1,5,1,"psychoed",58
"72","subREX_1","see raw data",2257826,"route 2",17,2276350,0.55,56,35,55,"psychoed",2534,5,10000,4,0.95,32,1,157.618181818182,"rew-eff","psychoed","14:36:16",1305438,88,1,1,0.4,0.95,0.55,0.4,1,0.95,5,4,1,5,2,"psychoed",58
"73","subREX_1","see raw data",2276350,"route 1",24,2291705,0.55,32,36,20,"psychoed",2400,4,10000,7,0.35,32,1,186.645161290323,"rew-eff","psychoed","14:36:16",1305438,88,1,3,0.2,0.55,0.35,0.2,1,0.55,7,4,1,7,2,"psychoed",58
"74","subREX_1","see raw data",922531,"route 1",24,937904,0.55,32,36,20,"baseline",2618,4,10000,7,0.35,32,1,175,"rew-eff","psychoed","14:36:16",1305438,88,1,3,0.2,0.55,0.35,0.2,1,0.55,7,4,1,7,1,"psychoed",58
"75","subREX_1","see raw data",937904,"route 2",31,955960,0.2,56,37,55,"baseline",2084,7,10000,3,0.95,12,1,156.145454545455,"rew-eff","psychoed","14:36:16",1305438,88,1,4,0.75,0.95,0.2,0.75,1,0.95,7,3,1,7,1,"psychoed",58
"76","subREX_1","see raw data",2291705,"route 2",31,2309979,0.2,55,37,55,"psychoed",2102,7,10000,3,0.95,12,1,159.944444444444,"rew-eff","psychoed","14:36:16",1305438,88,1,4,0.75,0.95,0.2,0.75,1,0.95,7,3,1,7,2,"psychoed",58
"77","subREX_1","see raw data",2309979,"route 1",37,2328586,0.95,55,38,32,"psychoed",2467,3,10000,6,0.55,55,1,159.314814814815,"rew-eff","psychoed","14:36:16",1305438,88,1,3,0.4,0.95,0.55,0.4,1,0.95,6,3,1,6,2,"psychoed",58
"78","subREX_1","see raw data",955960,"route 1",37,975539,0.95,56,38,32,"baseline",3303,3,10000,6,0.55,55,1,161.636363636364,"rew-eff","psychoed","14:36:16",1305438,88,1,3,0.4,0.95,0.55,0.4,1,0.95,6,3,1,6,1,"psychoed",58
"79","subREX_1","see raw data",2328586,"route 2",43,2347877,0.35,56,39,55,"psychoed",3085,6,10000,4,0.95,20,1,160.672727272727,"rew-eff","psychoed","14:36:16",1305438,88,1,2,0.6,0.95,0.35,0.6,1,0.95,6,4,1,6,2,"psychoed",58
"80","subREX_1","see raw data",975539,"route 2",43,993941,0.35,55,39,55,"baseline",2267,6,10000,4,0.95,20,1,159.351851851852,"rew-eff","psychoed","14:36:16",1305438,88,1,2,0.6,0.95,0.35,0.6,1,0.95,6,4,1,6,1,"psychoed",58
"81","subREX_1","see raw data",2347877,"route 1",49,2365767,0.75,45,40,12,"psychoed",3318,4,10000,6,0.2,44,1,163.295454545455,"rew-eff","psychoed","14:36:16",1305438,88,1,2,0.55,0.75,0.2,0.55,1,0.75,6,4,1,6,2,"psychoed",58
"82","subREX_1","see raw data",993941,"route 1",49,1011248,0.75,44,40,12,"baseline",2567,4,10000,6,0.2,44,1,168.674418604651,"rew-eff","psychoed","14:36:16",1305438,88,1,2,0.55,0.75,0.2,0.55,1,0.75,6,4,1,6,1,"psychoed",58
"83","subREX_1","see raw data",2365767,"route 2",55,2384124,0.75,55,41,55,"psychoed",2065,6,10000,4,0.95,44,1,164.909090909091,"rew-eff","psychoed","14:36:16",1305438,88,1,2,0.2,0.95,0.75,0.2,1,0.95,6,4,1,6,2,"psychoed",58
"84","subREX_1","see raw data",1011248,"route 2",55,1030174,0.75,55,41,55,"baseline",2617,6,10000,4,0.95,44,1,164.363636363636,"rew-eff","psychoed","14:36:16",1305438,88,1,2,0.2,0.95,0.75,0.2,1,0.95,6,4,1,6,1,"psychoed",58
"85","subREX_1","see raw data",2384124,"route 2",62,2399129,0.2,32,42,32,"psychoed",2235,7,10000,5,0.55,12,1,175.5625,"rew-eff","psychoed","14:36:16",1305438,88,1,2,0.35,0.55,0.2,0.35,1,0.55,7,5,1,7,2,"psychoed",58
"86","subREX_1","see raw data",1030174,"route 2",62,1045361,0.2,33,42,32,"baseline",2218,7,10000,5,0.55,12,1,177.6875,"rew-eff","psychoed","14:36:16",1305438,88,1,2,0.35,0.55,0.2,0.35,1,0.55,7,5,1,7,1,"psychoed",58
"87","subREX_1","see raw data",2399129,"route 2",62,2423072,0.35,54,43,55,"psychoed",2317,7,10000,6,0.95,20,0,165.830188679245,"rew-eff","psychoed","14:36:16",1305438,88,1,1,0.6,0.95,0.35,0.6,1,0.95,7,6,1,7,2,"psychoed",58
"88","subREX_1","see raw data",1045361,"route 2",69,1064152,0.35,55,43,55,"baseline",2635,7,10000,6,0.95,20,1,159.925925925926,"rew-eff","psychoed","14:36:16",1305438,88,1,1,0.6,0.95,0.35,0.6,1,0.95,7,6,1,7,1,"psychoed",58
"89","subREX_2","see raw data",0,"route 1",7,1509501,0.95,62,0,23,"planning",1969,3,10000,7,0.35,62,1,128.629032258065,"rew-eff","planning","12:37:21",0,88,2,4,0.6,0.95,0.35,0.6,1,0.95,7,3,1,7,2,"planning",65
"90","subREX_2","see raw data",145711,"route 1",7,162996,0.95,63,0,23,"baseline",2152,3,10000,7,0.35,62,1,132.142857142857,"rew-eff","planning","12:37:21",0,88,2,4,0.6,0.95,0.35,0.6,1,0.95,7,3,1,7,1,"planning",65
"91","subREX_2","see raw data",162996,"route 1",14,181732,0.95,63,1,49,"baseline",3387,4,10000,7,0.75,62,1,137.428571428571,"rew-eff","planning","12:37:21",0,88,2,3,0.2,0.95,0.75,0.2,1,0.95,7,4,1,7,1,"planning",65
"92","subREX_2","see raw data",1509501,"route 1",14,1526903,0.95,62,1,49,"planning",2853,4,10000,7,0.75,62,1,127.016129032258,"rew-eff","planning","12:37:21",0,88,2,3,0.2,0.95,0.75,0.2,1,0.95,7,4,1,7,2,"planning",65
"93","subREX_2","see raw data",1526903,"route 2",20,1540200,0.2,36,2,36,"planning",1769,6,10000,4,0.55,13,1,131.138888888889,"rew-eff","planning","12:37:21",0,88,2,2,0.35,0.55,0.2,0.35,1,0.55,6,4,1,6,2,"planning",65
"94","subREX_2","see raw data",181732,"route 2",20,196314,0.2,37,2,36,"baseline",2636,6,10000,4,0.55,13,1,141.567567567568,"rew-eff","planning","12:37:21",0,88,2,2,0.35,0.55,0.2,0.35,1,0.55,6,4,1,6,1,"planning",65
"95","subREX_2","see raw data",196314,"route 1",25,212915,0.75,49,3,13,"baseline",3253,4,10000,5,0.2,49,1,136.270833333333,"rew-eff","planning","12:37:21",0,88,2,1,0.55,0.75,0.2,0.55,1,0.75,5,4,1,5,1,"planning",65
"96","subREX_2","see raw data",1540200,"route 1",25,1557134,0.75,49,3,13,"planning",3587,4,10000,5,0.2,49,1,133.142857142857,"rew-eff","planning","12:37:21",0,88,2,1,0.55,0.75,0.2,0.55,1,0.75,5,4,1,5,2,"planning",65
"97","subREX_2","see raw data",212915,"route 2",32,231484,0.75,63,4,62,"baseline",3620,7,10000,5,0.95,49,1,133.483870967742,"rew-eff","planning","12:37:21",0,88,2,2,0.2,0.95,0.75,0.2,1,0.95,7,5,1,7,1,"planning",65
"98","subREX_2","see raw data",1557134,"route 2",32,1574035,0.75,62,4,62,"planning",2152,7,10000,5,0.95,49,1,130.241935483871,"rew-eff","planning","12:37:21",0,88,2,2,0.2,0.95,0.75,0.2,1,0.95,7,5,1,7,2,"planning",65
"99","subREX_2","see raw data",1574035,"route 1",38,1591654,0.95,62,5,36,"planning",2487,3,10000,6,0.55,62,1,135.393442622951,"rew-eff","planning","12:37:21",0,88,2,3,0.4,0.95,0.55,0.4,1,0.95,6,3,1,6,2,"planning",65
"100","subREX_2","see raw data",231484,"route 1",38,248702,0.95,62,5,36,"baseline",2069,3,10000,6,0.55,62,1,135.629032258065,"rew-eff","planning","12:37:21",0,88,2,3,0.4,0.95,0.55,0.4,1,0.95,6,3,1,6,1,"planning",65
"101","subREX_2","see raw data",1591654,"route 2",44,1606353,0.55,49,6,49,"planning",1552,6,10000,4,0.75,36,1,133.469387755102,"rew-eff","planning","12:37:21",0,88,2,2,0.2,0.75,0.55,0.2,1,0.75,6,4,1,6,2,"planning",65
"102","subREX_2","see raw data",248702,"route 2",44,269924,0.55,50,6,49,"baseline",2069,6,10000,4,0.75,36,1,145.387755102041,"rew-eff","planning","12:37:21",0,88,2,2,0.2,0.75,0.55,0.2,1,0.75,6,4,1,6,1,"planning",65
"103","subREX_2","see raw data",269924,"route 2",50,291413,0.2,63,7,62,"baseline",3954,6,10000,3,0.95,13,1,137.241935483871,"rew-eff","planning","12:37:21",0,88,2,3,0.75,0.95,0.2,0.75,1,0.95,6,3,1,6,1,"planning",65
"104","subREX_2","see raw data",1606353,"route 2",50,1622620,0.2,63,7,62,"planning",1502,6,10000,3,0.95,13,1,130.5,"rew-eff","planning","12:37:21",0,88,2,3,0.75,0.95,0.2,0.75,1,0.95,6,3,1,6,2,"planning",65
"105","subREX_2","see raw data",1622620,"route 2",55,1635967,0.2,24,8,23,"planning",3403,5,10000,4,0.35,13,1,136.208333333333,"rew-eff","planning","12:37:21",0,88,2,1,0.15,0.35,0.2,0.15,1,0.35,5,4,1,5,2,"planning",65
"106","subREX_2","see raw data",291413,"route 2",55,315922,0.2,23,8,23,"baseline",2102,5,10000,4,0.35,13,1,142.590909090909,"rew-eff","planning","12:37:21",0,88,2,1,0.15,0.35,0.2,0.15,1,0.35,5,4,1,5,1,"planning",65
"107","subREX_2","see raw data",1635967,"route 1",61,1656989,0.95,63,9,23,"planning",6056,3,10000,6,0.35,62,1,131.322580645161,"rew-eff","planning","12:37:21",0,88,2,3,0.6,0.95,0.35,0.6,1,0.95,6,3,1,6,2,"planning",65
"108","subREX_2","see raw data",315922,"route 1",61,334325,0.95,63,9,23,"baseline",3220,3,10000,6,0.35,62,1,136.967741935484,"rew-eff","planning","12:37:21",0,88,2,3,0.6,0.95,0.35,0.6,1,0.95,6,3,1,6,1,"planning",65
"109","subREX_2","see raw data",334325,"route 1",65,352511,0.35,23,10,13,"baseline",2203,3,10000,4,0.2,23,1,194.909090909091,"rew-eff","planning","12:37:21",0,88,2,1,0.15,0.35,0.2,0.15,1,0.35,4,3,1,4,1,"planning",65
"110","subREX_2","see raw data",1656989,"route 1",65,1670537,0.35,24,10,13,"planning",3587,3,10000,4,0.2,23,1,132.083333333333,"rew-eff","planning","12:37:21",0,88,2,1,0.15,0.35,0.2,0.15,1,0.35,4,3,1,4,2,"planning",65
"111","subREX_2","see raw data",538488,"route 2",7,553987,0.55,49,11,49,"baseline",2169,7,10000,5,0.75,36,1,133.469387755102,"rew-eff","planning","12:37:21",0,88,2,2,0.2,0.75,0.55,0.2,1,0.75,7,5,1,7,1,"planning",65
"112","subREX_2","see raw data",1719020,"route 2",7,1734687,0.55,49,11,49,"planning",2103,7,10000,5,0.75,36,1,136.604166666667,"rew-eff","planning","12:37:21",0,88,2,2,0.2,0.75,0.55,0.2,1,0.75,7,5,1,7,2,"planning",65
"113","subREX_2","see raw data",553987,"route 2",13,569237,0.2,50,12,49,"baseline",2119,6,10000,4,0.75,13,1,129.46,"rew-eff","planning","12:37:21",0,88,2,2,0.55,0.75,0.2,0.55,1,0.75,6,4,1,6,1,"planning",65
"114","subREX_2","see raw data",1734687,"route 2",13,1790495,0.2,49,12,49,"planning",42595,6,10000,4,0.75,13,1,133.816326530612,"rew-eff","planning","12:37:21",0,88,2,2,0.55,0.75,0.2,0.55,1,0.75,6,4,1,6,2,"planning",65
"115","subREX_2","see raw data",1790495,"route 2",18,1808381,0.35,63,13,62,"planning",3137,5,10000,3,0.95,23,1,129.177419354839,"rew-eff","planning","12:37:21",0,88,2,2,0.6,0.95,0.35,0.6,1,0.95,5,3,1,5,2,"planning",65
"116","subREX_2","see raw data",569237,"route 2",18,590876,0.35,63,13,62,"baseline",6707,5,10000,3,0.95,23,1,132.412698412698,"rew-eff","planning","12:37:21",0,88,2,2,0.6,0.95,0.35,0.6,1,0.95,5,3,1,5,1,"planning",65
"117","subREX_2","see raw data",590876,"route 2",26,605091,0.95,14,14,13,"baseline",5272,8,10000,1,0.2,62,1,155.230769230769,"rew-eff","planning","12:37:21",0,88,2,7,0.75,0.2,0.95,-0.75,0,0.95,8,1,1,8,1,"planning",65
"118","subREX_2","see raw data",1808381,"route 2",26,1821611,0.95,14,14,13,"planning",4471,8,10000,1,0.2,62,1,132.285714285714,"rew-eff","planning","12:37:21",0,88,2,7,0.75,0.2,0.95,-0.75,0,0.95,8,1,1,8,2,"planning",65
"119","subREX_2","see raw data",1821611,"route 1",30,1836510,0.75,49,15,23,"planning",1752,3,10000,4,0.35,49,1,129.3125,"rew-eff","planning","12:37:21",0,88,2,1,0.4,0.75,0.35,0.4,1,0.75,4,3,1,4,2,"planning",65
"120","subREX_2","see raw data",605091,"route 1",30,628432,0.75,49,15,23,"baseline",10194,3,10000,4,0.35,49,1,134.163265306122,"rew-eff","planning","12:37:21",0,88,2,1,0.4,0.75,0.35,0.4,1,0.75,4,3,1,4,1,"planning",65
"121","subREX_2","see raw data",1836510,"route 1",36,1859300,0.55,37,16,13,"planning",11228,5,10000,6,0.2,36,1,129.277777777778,"rew-eff","planning","12:37:21",0,88,2,1,0.35,0.55,0.2,0.35,1,0.55,6,5,1,6,2,"planning",65
"122","subREX_2","see raw data",628432,"route 1",36,642914,0.55,37,16,13,"baseline",2937,5,10000,6,0.2,36,1,133.027027027027,"rew-eff","planning","12:37:21",0,88,2,1,0.35,0.55,0.2,0.35,1,0.55,6,5,1,6,1,"planning",65
"123","subREX_2","see raw data",642914,"route 1",41,659881,0.95,63,17,13,"baseline",2436,3,10000,5,0.2,62,1,128.08064516129,"rew-eff","planning","12:37:21",0,88,2,2,0.75,0.95,0.2,0.75,1,0.95,5,3,1,5,1,"planning",65
"124","subREX_2","see raw data",1859300,"route 1",41,1876885,0.95,63,17,13,"planning",2836,3,10000,5,0.2,62,1,128.887096774194,"rew-eff","planning","12:37:21",0,88,2,2,0.75,0.95,0.2,0.75,1,0.95,5,3,1,5,2,"planning",65
"125","subREX_2","see raw data",1876885,"route 1",46,1893486,0.95,63,18,23,"planning",1802,4,10000,5,0.35,62,1,128.428571428571,"rew-eff","planning","12:37:21",0,88,2,1,0.6,0.95,0.35,0.6,1,0.95,5,4,1,5,2,"planning",65
"126","subREX_2","see raw data",659881,"route 1",46,676382,0.95,63,18,23,"baseline",1769,4,10000,5,0.35,62,1,128.444444444444,"rew-eff","planning","12:37:21",0,88,2,1,0.6,0.95,0.35,0.6,1,0.95,5,4,1,5,1,"planning",65
"127","subREX_2","see raw data",676382,"route 1",51,693116,0.95,62,19,13,"baseline",1585,3,10000,5,0.2,62,1,137.295081967213,"rew-eff","planning","12:37:21",0,88,2,2,0.75,0.95,0.2,0.75,1,0.95,5,3,1,5,1,"planning",65
"128","subREX_2","see raw data",1893486,"route 1",51,1914308,0.95,63,19,13,"planning",6240,3,10000,5,0.2,62,1,125.677419354839,"rew-eff","planning","12:37:21",0,88,2,2,0.75,0.95,0.2,0.75,1,0.95,5,3,1,5,2,"planning",65
"129","subREX_2","see raw data",1914308,"route 1",58,1964626,0.95,62,20,36,"planning",35754,4,10000,7,0.55,62,1,126.483870967742,"rew-eff","planning","12:37:21",0,88,2,3,0.4,0.95,0.55,0.4,1,0.95,7,4,1,7,2,"planning",65
"130","subREX_2","see raw data",693116,"route 1",58,712420,0.95,62,20,36,"baseline",4154,4,10000,7,0.55,62,1,135.354838709677,"rew-eff","planning","12:37:21",0,88,2,3,0.4,0.95,0.55,0.4,1,0.95,7,4,1,7,1,"planning",65
"131","subREX_2","see raw data",1964626,"route 1",65,1991405,0.75,50,21,13,"planning",13381,6,10000,7,0.2,49,1,130.12,"rew-eff","planning","12:37:21",0,88,2,1,0.55,0.75,0.2,0.55,1,0.75,7,6,1,7,2,"planning",65
"132","subREX_2","see raw data",712420,"route 1",65,728970,0.75,49,21,13,"baseline",2803,6,10000,7,0.2,49,1,141.479166666667,"rew-eff","planning","12:37:21",0,88,2,1,0.55,0.75,0.2,0.55,1,0.75,7,6,1,7,1,"planning",65
"133","subREX_2","see raw data",853533,"route 1",4,871436,0.95,63,22,36,"baseline",2753,3,10000,4,0.55,62,1,133.741935483871,"rew-eff","planning","12:37:21",0,88,2,1,0.4,0.95,0.55,0.4,1,0.95,4,3,1,4,1,"planning",65
"134","subREX_2","see raw data",2045645,"route 1",4,2061628,0.95,63,22,36,"planning",1418,3,10000,4,0.55,62,1,126.857142857143,"rew-eff","planning","12:37:21",0,88,2,1,0.4,0.95,0.55,0.4,1,0.95,4,3,1,4,2,"planning",65
"135","subREX_2","see raw data",2061628,"route 2",10,2082533,0.2,62,23,62,"planning",4271,6,10000,4,0.95,13,1,128.08064516129,"rew-eff","planning","12:37:21",0,88,2,2,0.75,0.95,0.2,0.75,1,0.95,6,4,1,6,2,"planning",65
"136","subREX_2","see raw data",871436,"route 2",10,888970,0.2,62,23,62,"baseline",3003,6,10000,4,0.95,13,1,127.290322580645,"rew-eff","planning","12:37:21",0,88,2,2,0.75,0.95,0.2,0.75,1,0.95,6,4,1,6,1,"planning",65
"137","subREX_2","see raw data",888970,"route 2",17,904219,0.35,36,24,36,"baseline",3521,7,10000,3,0.55,23,1,139.657142857143,"rew-eff","planning","12:37:21",0,88,2,4,0.2,0.55,0.35,0.2,1,0.55,7,3,1,7,1,"planning",65
"138","subREX_2","see raw data",2082533,"route 2",17,2095864,0.35,36,24,36,"planning",1969,7,10000,3,0.55,23,1,129.75,"rew-eff","planning","12:37:21",0,88,2,4,0.2,0.55,0.35,0.2,1,0.55,7,3,1,7,2,"planning",65
"139","subREX_2","see raw data",2095864,"route 1",24,2129899,0.35,23,25,13,"planning",9043,6,10000,7,0.2,23,1,128.181818181818,"rew-eff","planning","12:37:21",0,88,2,1,0.15,0.35,0.2,0.15,1,0.35,7,6,1,7,2,"planning",65
"140","subREX_2","see raw data",904219,"route 1",24,916783,0.35,24,25,13,"baseline",2820,6,10000,7,0.2,23,1,128.391304347826,"rew-eff","planning","12:37:21",0,88,2,1,0.15,0.35,0.2,0.15,1,0.35,7,6,1,7,1,"planning",65
"141","subREX_2","see raw data",2129899,"route 2",30,2149186,0.2,49,26,49,"planning",6123,6,10000,4,0.75,13,1,130.061224489796,"rew-eff","planning","12:37:21",0,88,2,2,0.55,0.75,0.2,0.55,1,0.75,6,4,1,6,2,"planning",65
"142","subREX_2","see raw data",916783,"route 2",30,935002,0.2,50,26,49,"baseline",5072,6,10000,4,0.75,13,1,126.46,"rew-eff","planning","12:37:21",0,88,2,2,0.55,0.75,0.2,0.55,1,0.75,6,4,1,6,1,"planning",65
"143","subREX_2","see raw data",2149186,"route 1",38,2164752,0.2,13,27,62,"planning",6973,1,10000,8,0.95,13,1,133.5,"rew-eff","planning","12:37:21",0,88,2,7,0.75,0.2,0.95,-0.75,0,0.95,8,1,1,8,2,"planning",65
"144","subREX_2","see raw data",935002,"route 1",38,949150,0.2,13,27,62,"baseline",3987,1,10000,8,0.95,13,1,266.916666666667,"rew-eff","planning","12:37:21",0,88,2,7,0.75,0.2,0.95,-0.75,0,0.95,8,1,1,8,1,"planning",65
"145","subREX_2","see raw data",949150,"route 1",45,965100,0.75,50,28,23,"baseline",3204,6,10000,7,0.35,49,1,122.918367346939,"rew-eff","planning","12:37:21",0,88,2,1,0.4,0.75,0.35,0.4,1,0.75,7,6,1,7,1,"planning",65
"146","subREX_2","see raw data",2164752,"route 1",45,2185407,0.75,50,28,23,"planning",7491,6,10000,7,0.35,49,1,131.428571428571,"rew-eff","planning","12:37:21",0,88,2,1,0.4,0.75,0.35,0.4,1,0.75,7,6,1,7,2,"planning",65
"147","subREX_2","see raw data",2185407,"route 2",49,2231005,0.35,63,29,62,"planning",30782,4,10000,3,0.95,23,1,127.806451612903,"rew-eff","planning","12:37:21",0,88,2,1,0.6,0.95,0.35,0.6,1,0.95,4,3,1,4,2,"planning",65
"148","subREX_2","see raw data",965100,"route 2",49,980933,0.35,62,29,62,"baseline",1485,4,10000,3,0.95,23,1,125,"rew-eff","planning","12:37:21",0,88,2,1,0.6,0.95,0.35,0.6,1,0.95,4,3,1,4,1,"planning",65
"149","subREX_2","see raw data",980933,"route 1",55,992278,0.35,24,30,13,"baseline",1602,5,10000,6,0.2,23,1,127.208333333333,"rew-eff","planning","12:37:21",0,88,2,1,0.15,0.35,0.2,0.15,1,0.35,6,5,1,6,1,"planning",65
"150","subREX_2","see raw data",2231005,"route 1",55,2243785,0.35,23,30,13,"planning",2770,5,10000,6,0.2,23,1,133.478260869565,"rew-eff","planning","12:37:21",0,88,2,1,0.15,0.35,0.2,0.15,1,0.35,6,5,1,6,2,"planning",65
"151","subREX_2","see raw data",2243785,"route 2",60,2258217,0.2,37,31,36,"planning",2602,5,10000,3,0.55,13,1,131.216216216216,"rew-eff","planning","12:37:21",0,88,2,2,0.35,0.55,0.2,0.35,1,0.55,5,3,1,5,2,"planning",65
"152","subREX_2","see raw data",992278,"route 2",60,1006710,0.2,36,31,36,"baseline",2486,5,10000,3,0.55,13,1,146.916666666667,"rew-eff","planning","12:37:21",0,88,2,2,0.35,0.55,0.2,0.35,1,0.55,5,3,1,5,1,"planning",65
"153","subREX_2","see raw data",2258217,"route 1",67,2303214,0.95,63,32,13,"planning",29798,3,10000,7,0.2,62,1,132.428571428571,"rew-eff","planning","12:37:21",0,88,2,4,0.75,0.95,0.2,0.75,1,0.95,7,3,1,7,2,"planning",65
"154","subREX_2","see raw data",1006710,"route 1",67,1025079,0.95,62,32,13,"baseline",4021,3,10000,7,0.2,62,1,123.901639344262,"rew-eff","planning","12:37:21",0,88,2,4,0.75,0.95,0.2,0.75,1,0.95,7,3,1,7,1,"planning",65
"155","subREX_2","see raw data",1197893,"route 2",7,1214060,0.2,50,33,49,"baseline",2820,7,10000,6,0.75,13,1,130.8,"rew-eff","planning","12:37:21",0,88,2,1,0.55,0.75,0.2,0.55,1,0.75,7,6,1,7,1,"planning",65
"156","subREX_2","see raw data",2324503,"route 2",7,2340903,0.2,50,33,49,"planning",3070,7,10000,6,0.75,13,1,133.48,"rew-eff","planning","12:37:21",0,88,2,1,0.55,0.75,0.2,0.55,1,0.75,7,6,1,7,2,"planning",65
"157","subREX_2","see raw data",1214060,"route 2",12,1227040,0.35,36,34,36,"baseline",1418,5,10000,4,0.55,23,1,133,"rew-eff","planning","12:37:21",0,88,2,1,0.2,0.55,0.35,0.2,1,0.55,5,4,1,5,1,"planning",65
"158","subREX_2","see raw data",2340903,"route 2",12,2353967,0.35,37,34,36,"planning",1702,5,10000,4,0.55,23,1,128.945945945946,"rew-eff","planning","12:37:21",0,88,2,1,0.2,0.55,0.35,0.2,1,0.55,5,4,1,5,2,"planning",65
"159","subREX_2","see raw data",2353967,"route 2",17,2377074,0.55,62,35,62,"planning",8325,5,10000,4,0.95,36,1,130.241935483871,"rew-eff","planning","12:37:21",0,88,2,1,0.4,0.95,0.55,0.4,1,0.95,5,4,1,5,2,"planning",65
"160","subREX_2","see raw data",1227040,"route 2",17,1244925,0.55,62,35,62,"baseline",2953,5,10000,4,0.95,36,1,129.967741935484,"rew-eff","planning","12:37:21",0,88,2,1,0.4,0.95,0.55,0.4,1,0.95,5,4,1,5,1,"planning",65
"161","subREX_2","see raw data",2377074,"route 1",24,2392624,0.55,37,36,23,"planning",3604,4,10000,7,0.35,36,1,134.388888888889,"rew-eff","planning","12:37:21",0,88,2,3,0.2,0.55,0.35,0.2,1,0.55,7,4,1,7,2,"planning",65
"162","subREX_2","see raw data",1244925,"route 1",24,1264779,0.55,37,36,23,"baseline",8309,4,10000,7,0.35,36,1,129.405405405405,"rew-eff","planning","12:37:21",0,88,2,3,0.2,0.55,0.35,0.2,1,0.55,7,4,1,7,1,"planning",65
"163","subREX_2","see raw data",1264779,"route 2",31,1281747,0.2,63,37,62,"baseline",2219,7,10000,3,0.95,13,1,129.507936507937,"rew-eff","planning","12:37:21",0,88,2,4,0.75,0.95,0.2,0.75,1,0.95,7,3,1,7,1,"planning",65
"164","subREX_2","see raw data",2392624,"route 2",31,2409792,0.2,63,37,62,"planning",2235,7,10000,3,0.95,13,1,131.619047619048,"rew-eff","planning","12:37:21",0,88,2,4,0.75,0.95,0.2,0.75,1,0.95,7,3,1,7,2,"planning",65
"165","subREX_2","see raw data",1281747,"route 1",37,1298431,0.95,63,38,36,"baseline",1936,3,10000,6,0.55,62,1,129.253968253968,"rew-eff","planning","12:37:21",0,88,2,3,0.4,0.95,0.55,0.4,1,0.95,6,3,1,6,1,"planning",65
"166","subREX_2","see raw data",2409792,"route 1",37,2426526,0.95,63,38,36,"planning",1969,3,10000,6,0.55,62,1,130.5,"rew-eff","planning","12:37:21",0,88,2,3,0.4,0.95,0.55,0.4,1,0.95,6,3,1,6,2,"planning",65
"167","subREX_2","see raw data",2426526,"route 2",43,2443310,0.35,62,39,62,"planning",1635,6,10000,4,0.95,23,1,137.295081967213,"rew-eff","planning","12:37:21",0,88,2,2,0.6,0.95,0.35,0.6,1,0.95,6,4,1,6,2,"planning",65
"168","subREX_2","see raw data",1298431,"route 2",43,1315683,0.35,63,39,62,"baseline",2303,6,10000,4,0.95,23,1,132.935483870968,"rew-eff","planning","12:37:21",0,88,2,2,0.6,0.95,0.35,0.6,1,0.95,6,4,1,6,1,"planning",65
"169","subREX_2","see raw data",1315683,"route 1",49,1330782,0.75,49,40,13,"baseline",1536,4,10000,6,0.2,49,1,135.510204081633,"rew-eff","planning","12:37:21",0,88,2,2,0.55,0.75,0.2,0.55,1,0.75,6,4,1,6,1,"planning",65
"170","subREX_2","see raw data",2443310,"route 1",49,2473575,0.75,49,40,13,"planning",17067,4,10000,6,0.2,49,1,131.081632653061,"rew-eff","planning","12:37:21",0,88,2,2,0.55,0.75,0.2,0.55,1,0.75,6,4,1,6,2,"planning",65
"171","subREX_2","see raw data",1330782,"route 2",55,1347783,0.75,62,41,62,"baseline",2269,6,10000,4,0.95,49,1,130.737704918033,"rew-eff","planning","12:37:21",0,88,2,2,0.2,0.95,0.75,0.2,1,0.95,6,4,1,6,1,"planning",65
"172","subREX_2","see raw data",2473575,"route 2",55,2504274,0.75,62,41,62,"planning",15699,6,10000,4,0.95,49,1,130.774193548387,"rew-eff","planning","12:37:21",0,88,2,2,0.2,0.95,0.75,0.2,1,0.95,6,4,1,6,2,"planning",65
"173","subREX_2","see raw data",1347783,"route 2",62,1360896,0.2,36,42,36,"baseline",1551,7,10000,5,0.55,13,1,135.305555555556,"rew-eff","planning","12:37:21",0,88,2,2,0.35,0.55,0.2,0.35,1,0.55,7,5,1,7,1,"planning",65
"174","subREX_2","see raw data",2504274,"route 2",62,2565871,0.2,37,42,36,"planning",50019,7,10000,5,0.55,13,1,136.25,"rew-eff","planning","12:37:21",0,88,2,2,0.35,0.55,0.2,0.35,1,0.55,7,5,1,7,2,"planning",65
"175","subREX_2","see raw data",1360896,"route 2",69,1377731,0.35,62,43,62,"baseline",1702,7,10000,6,0.95,23,1,135.08064516129,"rew-eff","planning","12:37:21",0,88,2,1,0.6,0.95,0.35,0.6,1,0.95,7,6,1,7,1,"planning",65
"176","subREX_2","see raw data",2565871,"route 2",69,2601592,0.35,62,43,62,"planning",20538,7,10000,6,0.95,23,1,134.806451612903,"rew-eff","planning","12:37:21",0,88,2,1,0.6,0.95,0.35,0.6,1,0.95,7,6,1,7,2,"planning",65
"177","subREX_3","see raw data",441814,"route 1",7,459828,0.95,53,0,19,"baseline",2595,3,10000,7,0.35,52,1,161.211538461538,"rew-eff","planning","14:36:53",0,88,3,4,0.6,0.95,0.35,0.6,1,0.95,7,3,1,7,1,"planning",55
"178","subREX_3","see raw data",0,"route 1",7,2182279,0.95,52,0,19,"planning",2686,3,10000,7,0.35,52,1,171.038461538462,"rew-eff","planning","14:36:53",0,88,3,4,0.6,0.95,0.35,0.6,1,0.95,7,3,1,7,2,"planning",55
"179","subREX_3","see raw data",2182279,"route 2",11,2200170,0.95,42,1,41,"planning",2946,4,10000,7,0.75,52,1,186.682926829268,"rew-eff","planning","14:36:53",0,88,3,3,0.2,0.75,0.95,-0.2,0,0.95,4,7,0,7,2,"planning",55
"180","subREX_3","see raw data",459828,"route 1",14,476398,0.95,53,1,41,"baseline",1250,4,10000,7,0.75,52,1,158.980769230769,"rew-eff","planning","14:36:53",0,88,3,3,0.2,0.95,0.75,0.2,1,0.95,7,4,1,7,1,"planning",55
"181","subREX_3","see raw data",476398,"route 2",20,490336,0.2,30,2,30,"baseline",1788,6,10000,4,0.55,11,1,173.033333333333,"rew-eff","planning","14:36:53",0,88,3,2,0.35,0.55,0.2,0.35,1,0.55,6,4,1,6,1,"planning",55
"182","subREX_3","see raw data",2200170,"route 1",15,2212168,0.2,12,2,30,"planning",2838,6,10000,4,0.55,11,1,167.5,"rew-eff","planning","14:36:53",0,88,3,2,0.35,0.2,0.55,-0.35,0,0.55,4,6,0,6,2,"planning",55
"183","subREX_3","see raw data",2212168,"route 2",19,2223948,0.75,12,3,11,"planning",2605,4,10000,5,0.2,41,1,167.636363636364,"rew-eff","planning","14:36:53",0,88,3,1,0.55,0.2,0.75,-0.55,0,0.75,4,5,0,5,2,"planning",55
"184","subREX_3","see raw data",490336,"route 1",25,505696,0.75,42,3,11,"baseline",1494,4,10000,5,0.2,41,1,168.19512195122,"rew-eff","planning","14:36:53",0,88,3,1,0.55,0.75,0.2,0.55,1,0.75,5,4,1,5,1,"planning",55
"185","subREX_3","see raw data",2223948,"route 1",24,2240625,0.75,42,4,52,"planning",2154,7,10000,5,0.95,41,1,176.365853658537,"rew-eff","planning","14:36:53",0,88,3,2,0.2,0.75,0.95,-0.2,0,0.95,5,7,0,7,2,"planning",55
"186","subREX_3","see raw data",505696,"route 2",32,523189,0.75,53,4,52,"baseline",1372,7,10000,5,0.95,41,1,174.057692307692,"rew-eff","planning","14:36:53",0,88,3,2,0.2,0.95,0.75,0.2,1,0.95,7,5,1,7,1,"planning",55
"187","subREX_3","see raw data",2240625,"route 2",27,2255771,0.95,30,5,30,"planning",2748,3,10000,6,0.55,52,1,176.833333333333,"rew-eff","planning","14:36:53",0,88,3,3,0.4,0.55,0.95,-0.4,0,0.95,3,6,0,6,2,"planning",55
"188","subREX_3","see raw data",523189,"route 1",38,540269,0.95,52,5,30,"baseline",1300,3,10000,6,0.55,52,1,167.961538461538,"rew-eff","planning","14:36:53",0,88,3,3,0.4,0.95,0.55,0.4,1,0.95,6,3,1,6,1,"planning",55
"189","subREX_3","see raw data",540269,"route 1",42,553621,0.55,31,6,41,"baseline",1174,6,10000,4,0.75,30,1,170.866666666667,"rew-eff","planning","14:36:53",0,88,3,2,0.2,0.55,0.75,-0.2,0,0.75,4,6,0,6,1,"planning",55
"190","subREX_3","see raw data",2255771,"route 1",31,2270845,0.55,30,6,41,"planning",2700,6,10000,4,0.75,30,1,174.8,"rew-eff","planning","14:36:53",0,88,3,2,0.2,0.55,0.75,-0.2,0,0.75,4,6,0,6,2,"planning",55
"191","subREX_3","see raw data",553621,"route 2",48,571310,0.2,52,7,52,"baseline",1369,6,10000,3,0.95,11,1,180.884615384615,"rew-eff","planning","14:36:53",0,88,3,3,0.75,0.95,0.2,0.75,1,0.95,6,3,1,6,1,"planning",55
"192","subREX_3","see raw data",2270845,"route 2",37,2289375,0.2,52,7,52,"planning",2603,6,10000,3,0.95,11,1,173,"rew-eff","planning","14:36:53",0,88,3,3,0.75,0.95,0.2,0.75,1,0.95,6,3,1,6,2,"planning",55
"193","subREX_3","see raw data",571310,"route 1",52,582117,0.2,12,8,19,"baseline",1838,5,10000,4,0.35,11,1,173.636363636364,"rew-eff","planning","14:36:53",0,88,3,1,0.15,0.2,0.35,-0.15,0,0.35,4,5,0,5,1,"planning",55
"194","subREX_3","see raw data",2289375,"route 1",41,2300630,0.2,11,8,19,"planning",2509,5,10000,4,0.35,11,1,176.181818181818,"rew-eff","planning","14:36:53",0,88,3,1,0.15,0.2,0.35,-0.15,0,0.35,4,5,0,5,2,"planning",55
"195","subREX_3","see raw data",2300630,"route 1",47,2318572,0.95,52,9,19,"planning",1776,3,10000,6,0.35,52,1,171.843137254902,"rew-eff","planning","14:36:53",0,88,3,3,0.6,0.95,0.35,0.6,1,0.95,6,3,1,6,2,"planning",55
"196","subREX_3","see raw data",582117,"route 1",58,599343,0.95,52,9,19,"baseline",1870,3,10000,6,0.35,52,1,159.673076923077,"rew-eff","planning","14:36:53",0,88,3,3,0.6,0.95,0.35,0.6,1,0.95,6,3,1,6,1,"planning",55
"197","subREX_3","see raw data",599343,"route 1",62,612081,0.35,19,10,11,"baseline",2445,3,10000,4,0.2,19,1,178.210526315789,"rew-eff","planning","14:36:53",0,88,3,1,0.15,0.35,0.2,0.15,1,0.35,4,3,1,4,1,"planning",55
"198","subREX_3","see raw data",2318572,"route 2",50,2330629,0.35,12,10,11,"planning",3069,3,10000,4,0.2,19,1,171.454545454545,"rew-eff","planning","14:36:53",0,88,3,1,0.15,0.2,0.35,-0.15,0,0.35,3,4,0,4,2,"planning",55
"199","subREX_3","see raw data",2568101,"route 1",5,2583613,0.55,30,11,41,"planning",2753,7,10000,5,0.75,30,1,180.666666666667,"rew-eff","planning","14:36:53",0,88,3,2,0.2,0.55,0.75,-0.2,0,0.75,5,7,0,7,2,"planning",55
"200","subREX_3","see raw data",722560,"route 2",7,738666,0.55,42,11,41,"baseline",1988,7,10000,5,0.75,30,1,169.738095238095,"rew-eff","planning","14:36:53",0,88,3,2,0.2,0.75,0.55,0.2,1,0.75,7,5,1,7,1,"planning",55
"201","subREX_3","see raw data",738666,"route 2",13,755014,0.2,41,12,41,"baseline",2210,6,10000,4,0.75,11,1,170.725,"rew-eff","planning","14:36:53",0,88,3,2,0.55,0.75,0.2,0.55,1,0.75,6,4,1,6,1,"planning",55
"202","subREX_3","see raw data",2583613,"route 1",9,2598276,0.2,11,12,41,"planning",5720,6,10000,4,0.75,11,1,176.545454545455,"rew-eff","planning","14:36:53",0,88,3,2,0.55,0.2,0.75,-0.55,0,0.75,4,6,0,6,2,"planning",55
"203","subREX_3","see raw data",2598276,"route 1",12,2611774,0.35,20,13,52,"planning",2670,5,10000,3,0.95,19,1,199.894736842105,"rew-eff","planning","14:36:53",0,88,3,2,0.6,0.35,0.95,-0.6,0,0.95,3,5,0,5,2,"planning",55
"204","subREX_3","see raw data",755014,"route 2",13,778431,0.35,51,13,52,"baseline",1817,5,10000,3,0.95,19,0,180.294117647059,"rew-eff","planning","14:36:53",0,88,3,2,0.6,0.95,0.35,0.6,1,0.95,5,3,1,5,1,"planning",55
"205","subREX_3","see raw data",2611774,"route 2",20,2625600,0.95,12,14,11,"planning",4084,8,10000,1,0.2,52,1,221.818181818182,"rew-eff","planning","14:36:53",0,88,3,7,0.75,0.2,0.95,-0.75,0,0.95,8,1,1,8,2,"planning",55
"206","subREX_3","see raw data",778431,"route 2",21,790118,0.95,11,14,11,"baseline",1977,8,10000,1,0.2,52,1,163.090909090909,"rew-eff","planning","14:36:53",0,88,3,7,0.75,0.2,0.95,-0.75,0,0.95,8,1,1,8,1,"planning",55
"207","subREX_3","see raw data",790118,"route 1",25,807606,0.75,41,15,19,"baseline",2099,3,10000,4,0.35,41,1,177.146341463415,"rew-eff","planning","14:36:53",0,88,3,1,0.4,0.75,0.35,0.4,1,0.75,4,3,1,4,1,"planning",55
"208","subREX_3","see raw data",2625600,"route 2",23,2639716,0.75,20,15,19,"planning",3338,3,10000,4,0.35,41,1,186.894736842105,"rew-eff","planning","14:36:53",0,88,3,1,0.4,0.35,0.75,-0.4,0,0.75,3,4,0,4,2,"planning",55
"209","subREX_3","see raw data",2639716,"route 2",28,2651675,0.55,12,16,11,"planning",2987,5,10000,6,0.2,30,1,168.333333333333,"rew-eff","planning","14:36:53",0,88,3,1,0.35,0.2,0.55,-0.35,0,0.55,5,6,0,6,2,"planning",55
"210","subREX_3","see raw data",807606,"route 1",31,821923,0.55,31,16,11,"baseline",1899,5,10000,6,0.2,30,1,179.7,"rew-eff","planning","14:36:53",0,88,3,1,0.35,0.55,0.2,0.35,1,0.55,6,5,1,6,1,"planning",55
"211","subREX_3","see raw data",821923,"route 1",31,845548,0.95,50,17,11,"baseline",2095,3,10000,5,0.2,52,0,182.48,"rew-eff","planning","14:36:53",0,88,3,2,0.75,0.95,0.2,0.75,1,0.95,5,3,1,5,1,"planning",55
"212","subREX_3","see raw data",2651675,"route 2",31,2662583,0.95,11,17,11,"planning",1910,3,10000,5,0.2,52,1,175.363636363636,"rew-eff","planning","14:36:53",0,88,3,2,0.75,0.2,0.95,-0.75,0,0.95,3,5,0,5,2,"planning",55
"213","subREX_3","see raw data",845548,"route 1",36,863515,0.95,52,18,19,"baseline",1990,4,10000,5,0.35,52,1,173.211538461538,"rew-eff","planning","14:36:53",0,88,3,1,0.6,0.95,0.35,0.6,1,0.95,5,4,1,5,1,"planning",55
"214","subREX_3","see raw data",2662583,"route 2",35,2675356,0.95,20,18,19,"planning",2481,4,10000,5,0.35,52,1,176.263157894737,"rew-eff","planning","14:36:53",0,88,3,1,0.6,0.35,0.95,-0.6,0,0.95,4,5,0,5,2,"planning",55
"215","subREX_3","see raw data",863515,"route 1",36,886788,0.95,51,19,11,"baseline",1652,3,10000,5,0.2,52,0,182.48,"rew-eff","planning","14:36:53",0,88,3,2,0.75,0.95,0.2,0.75,1,0.95,5,3,1,5,1,"planning",55
"216","subREX_3","see raw data",2675356,"route 2",38,2686042,0.95,11,19,11,"planning",1753,3,10000,5,0.2,52,1,183,"rew-eff","planning","14:36:53",0,88,3,2,0.75,0.2,0.95,-0.75,0,0.95,3,5,0,5,2,"planning",55
"217","subREX_3","see raw data",886788,"route 1",43,904434,0.95,52,20,30,"baseline",1718,4,10000,7,0.55,52,1,175.096153846154,"rew-eff","planning","14:36:53",0,88,3,3,0.4,0.95,0.55,0.4,1,0.95,7,4,1,7,1,"planning",55
"218","subREX_3","see raw data",2686042,"route 2",42,2700326,0.95,30,20,30,"planning",1948,4,10000,7,0.55,52,1,181.413793103448,"rew-eff","planning","14:36:53",0,88,3,3,0.4,0.55,0.95,-0.4,0,0.95,4,7,0,7,2,"planning",55
"219","subREX_3","see raw data",904434,"route 1",50,920396,0.75,42,21,11,"baseline",1834,6,10000,7,0.2,41,1,165.439024390244,"rew-eff","planning","14:36:53",0,88,3,1,0.55,0.75,0.2,0.55,1,0.75,7,6,1,7,1,"planning",55
"220","subREX_3","see raw data",2700326,"route 2",48,2711292,0.75,11,21,11,"planning",1998,6,10000,7,0.2,41,1,179.090909090909,"rew-eff","planning","14:36:53",0,88,3,1,0.55,0.2,0.75,-0.55,0,0.75,6,7,0,7,2,"planning",55
"221","subREX_3","see raw data",1270999,"route 1",4,1289379,0.95,52,22,30,"baseline",2224,3,10000,4,0.55,52,1,176.115384615385,"rew-eff","planning","14:36:53",0,88,3,1,0.4,0.95,0.55,0.4,1,0.95,4,3,1,4,1,"planning",55
"222","subREX_3","see raw data",2823272,"route 2",3,2838301,0.95,30,22,30,"planning",2528,3,10000,4,0.55,52,1,185.8,"rew-eff","planning","14:36:53",0,88,3,1,0.4,0.55,0.95,-0.4,0,0.95,3,4,0,4,2,"planning",55
"223","subREX_3","see raw data",2838301,"route 1",7,2849461,0.2,11,23,52,"planning",2007,6,10000,4,0.95,11,1,178.454545454545,"rew-eff","planning","14:36:53",0,88,3,2,0.75,0.2,0.95,-0.75,0,0.95,4,6,0,6,2,"planning",55
"224","subREX_3","see raw data",1289379,"route 2",10,1307299,0.2,52,23,52,"baseline",1747,6,10000,4,0.95,11,1,176.313725490196,"rew-eff","planning","14:36:53",0,88,3,2,0.75,0.95,0.2,0.75,1,0.95,6,4,1,6,1,"planning",55
"225","subREX_3","see raw data",1307299,"route 2",17,1321131,0.35,30,24,30,"baseline",1458,7,10000,3,0.55,19,1,182.3,"rew-eff","planning","14:36:53",0,88,3,4,0.2,0.55,0.35,0.2,1,0.55,7,3,1,7,1,"planning",55
"226","subREX_3","see raw data",2849461,"route 1",10,2862196,0.35,19,24,30,"planning",2214,7,10000,3,0.55,19,1,183.684210526316,"rew-eff","planning","14:36:53",0,88,3,4,0.2,0.35,0.55,-0.2,0,0.55,3,7,0,7,2,"planning",55
"227","subREX_3","see raw data",1321131,"route 1",24,1333659,0.35,20,25,11,"baseline",1986,6,10000,7,0.2,19,1,180.578947368421,"rew-eff","planning","14:36:53",0,88,3,1,0.15,0.35,0.2,0.15,1,0.35,7,6,1,7,1,"planning",55
"228","subREX_3","see raw data",2862196,"route 1",17,2874779,0.35,19,25,11,"planning",1846,6,10000,7,0.2,19,1,193.5,"rew-eff","planning","14:36:53",0,88,3,1,0.15,0.35,0.2,0.15,1,0.35,7,6,1,7,2,"planning",55
"229","subREX_3","see raw data",1333659,"route 2",30,1349140,0.2,42,26,41,"baseline",1572,6,10000,4,0.75,11,1,168.52380952381,"rew-eff","planning","14:36:53",0,88,3,2,0.55,0.75,0.2,0.55,1,0.75,6,4,1,6,1,"planning",55
"230","subREX_3","see raw data",2874779,"route 1",21,2886297,0.2,11,26,41,"planning",2538,6,10000,4,0.75,11,1,183.363636363636,"rew-eff","planning","14:36:53",0,88,3,2,0.55,0.2,0.75,-0.55,0,0.75,4,6,0,6,2,"planning",55
"231","subREX_3","see raw data",1349140,"route 1",38,1359459,0.2,11,27,52,"baseline",1557,1,10000,8,0.95,11,1,168.272727272727,"rew-eff","planning","14:36:53",0,88,3,7,0.75,0.2,0.95,-0.75,0,0.95,8,1,1,8,1,"planning",55
"232","subREX_3","see raw data",2886297,"route 1",29,2897444,0.2,11,27,52,"planning",2214,1,10000,8,0.95,11,1,179,"rew-eff","planning","14:36:53",0,88,3,7,0.75,0.2,0.95,-0.75,0,0.95,8,1,1,8,2,"planning",55
"233","subREX_3","see raw data",1359459,"route 1",45,1375681,0.75,42,28,19,"baseline",1824,6,10000,7,0.35,41,1,178.951219512195,"rew-eff","planning","14:36:53",0,88,3,1,0.4,0.75,0.35,0.4,1,0.75,7,6,1,7,1,"planning",55
"234","subREX_3","see raw data",2897444,"route 2",35,2910278,0.75,19,28,19,"planning",2467,6,10000,7,0.35,41,1,179.578947368421,"rew-eff","planning","14:36:53",0,88,3,1,0.4,0.35,0.75,-0.4,0,0.75,6,7,0,7,2,"planning",55
"235","subREX_3","see raw data",2910278,"route 1",38,2922971,0.35,19,29,52,"planning",1942,4,10000,3,0.95,19,1,193.052631578947,"rew-eff","planning","14:36:53",0,88,3,1,0.6,0.35,0.95,-0.6,0,0.95,3,4,0,4,2,"planning",55
"236","subREX_3","see raw data",1375681,"route 2",45,1398904,0.35,50,29,52,"baseline",1600,4,10000,3,0.95,19,0,183.38,"rew-eff","planning","14:36:53",0,88,3,1,0.6,0.95,0.35,0.6,1,0.95,4,3,1,4,1,"planning",55
"237","subREX_3","see raw data",2922971,"route 2",43,2933650,0.35,12,30,11,"planning",1770,5,10000,6,0.2,19,1,178.818181818182,"rew-eff","planning","14:36:53",0,88,3,1,0.15,0.2,0.35,-0.15,0,0.35,5,6,0,6,2,"planning",55
"238","subREX_3","see raw data",1398904,"route 1",51,1411795,0.35,19,30,11,"baseline",2503,5,10000,6,0.2,19,1,177.526315789474,"rew-eff","planning","14:36:53",0,88,3,1,0.15,0.35,0.2,0.15,1,0.35,6,5,1,6,1,"planning",55
"239","subREX_3","see raw data",2933650,"route 1",46,2944947,0.2,12,31,30,"planning",2129,5,10000,3,0.55,11,1,182.75,"rew-eff","planning","14:36:53",0,88,3,2,0.35,0.2,0.55,-0.35,0,0.55,3,5,0,5,2,"planning",55
"240","subREX_3","see raw data",1411795,"route 2",56,1425635,0.2,30,31,30,"baseline",1621,5,10000,3,0.55,11,1,170,"rew-eff","planning","14:36:53",0,88,3,2,0.35,0.55,0.2,0.35,1,0.55,5,3,1,5,1,"planning",55
"241","subREX_3","see raw data",2944947,"route 2",49,2955828,0.95,11,32,11,"planning",1934,3,10000,7,0.2,52,1,179.454545454545,"rew-eff","planning","14:36:53",0,88,3,4,0.75,0.2,0.95,-0.75,0,0.95,3,7,0,7,2,"planning",55
"242","subREX_3","see raw data",1425635,"route 1",56,1449508,0.95,45,32,11,"baseline",2258,3,10000,7,0.2,52,0,207.2,"rew-eff","planning","14:36:53",0,88,3,4,0.75,0.95,0.2,0.75,1,0.95,7,3,1,7,1,"planning",55
"243","subREX_3","see raw data",1552453,"route 1",6,1564693,0.2,11,33,41,"baseline",3099,7,10000,6,0.75,11,1,172.545454545455,"rew-eff","planning","14:36:53",0,88,3,1,0.55,0.2,0.75,-0.55,0,0.75,6,7,0,7,1,"planning",55
"244","subREX_3","see raw data",2979926,"route 1",6,2990901,0.2,12,33,41,"planning",1911,7,10000,6,0.75,11,1,186.181818181818,"rew-eff","planning","14:36:53",0,88,3,1,0.55,0.2,0.75,-0.55,0,0.75,6,7,0,7,2,"planning",55
"245","subREX_3","see raw data",1564693,"route 1",10,1578014,0.35,20,34,30,"baseline",2741,5,10000,4,0.55,19,1,185.473684210526,"rew-eff","planning","14:36:53",0,88,3,1,0.2,0.35,0.55,-0.2,0,0.55,4,5,0,5,1,"planning",55
"246","subREX_3","see raw data",2990901,"route 1",10,3003263,0.35,19,34,30,"planning",1774,5,10000,4,0.55,19,1,180.052631578947,"rew-eff","planning","14:36:53",0,88,3,1,0.2,0.35,0.55,-0.2,0,0.55,4,5,0,5,2,"planning",55
"247","subREX_3","see raw data",1578014,"route 1",14,1592698,0.55,30,35,52,"baseline",2312,5,10000,4,0.95,30,1,177.344827586207,"rew-eff","planning","14:36:53",0,88,3,1,0.4,0.55,0.95,-0.4,0,0.95,4,5,0,5,1,"planning",55
"248","subREX_3","see raw data",3003263,"route 1",14,3018085,0.55,31,35,52,"planning",2317,5,10000,4,0.95,30,1,181.967741935484,"rew-eff","planning","14:36:53",0,88,3,1,0.4,0.55,0.95,-0.4,0,0.95,4,5,0,5,2,"planning",55
"249","subREX_3","see raw data",3018085,"route 2",18,3030579,0.55,20,36,19,"planning",1893,4,10000,7,0.35,30,1,183.736842105263,"rew-eff","planning","14:36:53",0,88,3,3,0.2,0.35,0.55,-0.2,0,0.55,4,7,0,7,2,"planning",55
"250","subREX_3","see raw data",1592698,"route 2",18,1605745,0.55,19,36,19,"baseline",2443,4,10000,7,0.35,30,1,181.947368421053,"rew-eff","planning","14:36:53",0,88,3,3,0.2,0.35,0.55,-0.2,0,0.55,4,7,0,7,1,"planning",55
"251","subREX_3","see raw data",3030579,"route 1",21,3041147,0.2,12,37,52,"planning",1665,7,10000,3,0.95,11,1,181.454545454545,"rew-eff","planning","14:36:53",0,88,3,4,0.75,0.2,0.95,-0.75,0,0.95,3,7,0,7,2,"planning",55
"252","subREX_3","see raw data",1605745,"route 2",18,1630324,0.2,51,37,52,"baseline",2914,7,10000,3,0.95,11,0,178.941176470588,"rew-eff","planning","14:36:53",0,88,3,4,0.75,0.95,0.2,0.75,1,0.95,7,3,1,7,1,"planning",55
"253","subREX_3","see raw data",1630324,"route 2",21,1645844,0.95,30,38,30,"baseline",2943,3,10000,6,0.55,52,1,188.413793103448,"rew-eff","planning","14:36:53",0,88,3,3,0.4,0.55,0.95,-0.4,0,0.95,3,6,0,6,1,"planning",55
"254","subREX_3","see raw data",3041147,"route 2",24,3056160,0.95,30,38,30,"planning",2394,3,10000,6,0.55,52,1,184.033333333333,"rew-eff","planning","14:36:53",0,88,3,3,0.4,0.55,0.95,-0.4,0,0.95,3,6,0,6,2,"planning",55
"255","subREX_3","see raw data",3056160,"route 1",28,3068392,0.35,19,39,52,"planning",1877,6,10000,4,0.95,19,1,182,"rew-eff","planning","14:36:53",0,88,3,2,0.6,0.35,0.95,-0.6,0,0.95,4,6,0,6,2,"planning",55
"256","subREX_3","see raw data",1645844,"route 1",25,1658813,0.35,19,39,52,"baseline",2628,6,10000,4,0.95,19,1,179.526315789474,"rew-eff","planning","14:36:53",0,88,3,2,0.6,0.35,0.95,-0.6,0,0.95,4,6,0,6,1,"planning",55
"257","subREX_3","see raw data",3068392,"route 2",32,3080096,0.75,11,40,11,"planning",2297,4,10000,6,0.2,41,1,212.909090909091,"rew-eff","planning","14:36:53",0,88,3,2,0.55,0.2,0.75,-0.55,0,0.75,4,6,0,6,2,"planning",55
"258","subREX_3","see raw data",1658813,"route 2",29,1670670,0.75,11,40,11,"baseline",2748,4,10000,6,0.2,41,1,177.7,"rew-eff","planning","14:36:53",0,88,3,2,0.55,0.2,0.75,-0.55,0,0.75,4,6,0,6,1,"planning",55
"259","subREX_3","see raw data",1670670,"route 1",33,1687410,0.75,41,41,52,"baseline",2351,6,10000,4,0.95,41,1,181.90243902439,"rew-eff","planning","14:36:53",0,88,3,2,0.2,0.75,0.95,-0.2,0,0.95,4,6,0,6,1,"planning",55
"260","subREX_3","see raw data",3080096,"route 1",36,3096180,0.75,41,41,52,"planning",1942,6,10000,4,0.95,41,1,177.048780487805,"rew-eff","planning","14:36:53",0,88,3,2,0.2,0.75,0.95,-0.2,0,0.95,4,6,0,6,2,"planning",55
"261","subREX_3","see raw data",3096180,"route 1",41,3106568,0.2,12,42,30,"planning",1436,7,10000,5,0.55,11,1,181.909090909091,"rew-eff","planning","14:36:53",0,88,3,2,0.35,0.2,0.55,-0.35,0,0.55,5,7,0,7,2,"planning",55
"262","subREX_3","see raw data",1687410,"route 1",38,1698608,0.2,11,42,30,"baseline",2056,7,10000,5,0.55,11,1,190.4,"rew-eff","planning","14:36:53",0,88,3,2,0.35,0.2,0.55,-0.35,0,0.55,5,7,0,7,1,"planning",55
"263","subREX_3","see raw data",3106568,"route 1",47,3118476,0.35,20,43,52,"planning",1543,7,10000,6,0.95,19,1,171.368421052632,"rew-eff","planning","14:36:53",0,88,3,1,0.6,0.35,0.95,-0.6,0,0.95,6,7,0,7,2,"planning",55
"264","subREX_3","see raw data",1698608,"route 1",44,1711544,0.35,20,43,52,"baseline",2306,7,10000,6,0.95,19,1,181.105263157895,"rew-eff","planning","14:36:53",0,88,3,1,0.6,0.35,0.95,-0.6,0,0.95,6,7,0,7,1,"planning",55
"265","subREX_4","see raw data",281114,"route 1",7,300874,0.95,65,0,24,"baseline",4610,3,10000,7,0.35,65,1,124.65625,"rew-eff","planning","14:35:08",0,88,4,4,0.6,0.95,0.35,0.6,1,0.95,7,3,1,7,1,"planning",68
"266","subREX_4","see raw data",0,"route 1",7,1077930,0.95,67,0,24,"planning",2632,3,10000,7,0.35,65,1,103.55223880597,"rew-eff","planning","14:35:08",0,88,4,4,0.6,0.95,0.35,0.6,1,0.95,7,3,1,7,2,"planning",68
"267","subREX_4","see raw data",1077930,"route 1",14,1094290,0.95,66,1,51,"planning",2180,4,10000,7,0.75,65,1,111.742424242424,"rew-eff","planning","14:35:08",0,88,4,3,0.2,0.95,0.75,0.2,1,0.95,7,4,1,7,2,"planning",68
"268","subREX_4","see raw data",300874,"route 1",14,318354,0.95,66,1,51,"baseline",2515,4,10000,7,0.75,65,1,121.969230769231,"rew-eff","planning","14:35:08",0,88,4,3,0.2,0.95,0.75,0.2,1,0.95,7,4,1,7,1,"planning",68
"269","subREX_4","see raw data",1094290,"route 2",20,1108923,0.2,37,2,37,"planning",2062,6,10000,4,0.55,14,1,157.189189189189,"rew-eff","planning","14:35:08",0,88,4,2,0.35,0.55,0.2,0.35,1,0.55,6,4,1,6,2,"planning",68
"270","subREX_4","see raw data",318354,"route 2",20,331931,0.2,38,2,37,"baseline",1810,6,10000,4,0.55,14,1,133.648648648649,"rew-eff","planning","14:35:08",0,88,4,2,0.35,0.55,0.2,0.35,1,0.55,6,4,1,6,1,"planning",68
"271","subREX_4","see raw data",331931,"route 2",24,343011,0.75,14,3,14,"baseline",2531,4,10000,5,0.2,51,1,130.230769230769,"rew-eff","planning","14:35:08",0,88,4,1,0.55,0.2,0.75,-0.55,0,0.75,4,5,0,5,1,"planning",68
"272","subREX_4","see raw data",1108923,"route 1",25,1124329,0.75,52,3,14,"planning",1442,4,10000,5,0.2,51,1,139.313725490196,"rew-eff","planning","14:35:08",0,88,4,1,0.55,0.75,0.2,0.55,1,0.75,5,4,1,5,2,"planning",68
"273","subREX_4","see raw data",1124329,"route 2",32,1143487,0.75,65,4,65,"planning",5012,7,10000,5,0.95,51,1,112.430769230769,"rew-eff","planning","14:35:08",0,88,4,2,0.2,0.95,0.75,0.2,1,0.95,7,5,1,7,2,"planning",68
"274","subREX_4","see raw data",343011,"route 2",31,362371,0.75,65,4,65,"baseline",4023,7,10000,5,0.95,51,1,127.107692307692,"rew-eff","planning","14:35:08",0,88,4,2,0.2,0.95,0.75,0.2,1,0.95,7,5,1,7,1,"planning",68
"275","subREX_4","see raw data",1143487,"route 1",38,1160282,0.95,65,5,37,"planning",2867,3,10000,6,0.55,65,1,109.353846153846,"rew-eff","planning","14:35:08",0,88,4,3,0.4,0.95,0.55,0.4,1,0.95,6,3,1,6,2,"planning",68
"276","subREX_4","see raw data",362371,"route 2",34,376317,0.95,38,5,37,"baseline",1994,3,10000,6,0.55,65,1,140.918918918919,"rew-eff","planning","14:35:08",0,88,4,3,0.4,0.55,0.95,-0.4,0,0.95,3,6,0,6,1,"planning",68
"277","subREX_4","see raw data",376317,"route 2",40,392459,0.55,51,6,51,"baseline",2565,6,10000,4,0.75,37,1,134.078431372549,"rew-eff","planning","14:35:08",0,88,4,2,0.2,0.75,0.55,0.2,1,0.75,6,4,1,6,1,"planning",68
"278","subREX_4","see raw data",1160282,"route 2",44,1177163,0.55,51,6,51,"planning",2933,6,10000,4,0.75,37,1,131.803921568627,"rew-eff","planning","14:35:08",0,88,4,2,0.2,0.75,0.55,0.2,1,0.75,6,4,1,6,2,"planning",68
"279","subREX_4","see raw data",392459,"route 1",43,403724,0.2,14,7,65,"baseline",2313,6,10000,3,0.95,14,1,132.714285714286,"rew-eff","planning","14:35:08",0,88,4,3,0.75,0.2,0.95,-0.75,0,0.95,3,6,0,6,1,"planning",68
"280","subREX_4","see raw data",1177163,"route 1",47,1190370,0.2,15,7,65,"planning",4240,6,10000,3,0.95,14,1,155.571428571429,"rew-eff","planning","14:35:08",0,88,4,3,0.75,0.2,0.95,-0.75,0,0.95,3,6,0,6,2,"planning",68
"281","subREX_4","see raw data",1190370,"route 2",52,1202456,0.2,24,8,24,"planning",2095,5,10000,4,0.35,14,1,126.04347826087,"rew-eff","planning","14:35:08",0,88,4,1,0.15,0.35,0.2,0.15,1,0.35,5,4,1,5,2,"planning",68
"282","subREX_4","see raw data",403724,"route 2",48,416027,0.2,24,8,24,"baseline",1743,5,10000,4,0.35,14,1,161.782608695652,"rew-eff","planning","14:35:08",0,88,4,1,0.15,0.35,0.2,0.15,1,0.35,5,4,1,5,1,"planning",68
"283","subREX_4","see raw data",1202456,"route 1",58,1219570,0.95,66,9,24,"planning",2883,3,10000,6,0.35,65,1,113.2,"rew-eff","planning","14:35:08",0,88,4,3,0.6,0.95,0.35,0.6,1,0.95,6,3,1,6,2,"planning",68
"284","subREX_4","see raw data",416027,"route 2",51,430225,0.95,24,9,24,"baseline",3638,3,10000,6,0.35,65,1,153.04347826087,"rew-eff","planning","14:35:08",0,88,4,3,0.6,0.35,0.95,-0.6,0,0.95,3,6,0,6,1,"planning",68
"285","subREX_4","see raw data",430225,"route 1",55,444187,0.35,25,10,14,"baseline",3001,3,10000,4,0.2,24,1,157.166666666667,"rew-eff","planning","14:35:08",0,88,4,1,0.15,0.35,0.2,0.15,1,0.35,4,3,1,4,1,"planning",68
"286","subREX_4","see raw data",1219570,"route 1",62,1231154,0.35,24,10,14,"planning",1860,3,10000,4,0.2,24,1,129.833333333333,"rew-eff","planning","14:35:08",0,88,4,1,0.15,0.35,0.2,0.15,1,0.35,4,3,1,4,2,"planning",68
"287","subREX_4","see raw data",490032,"route 2",7,505369,0.55,52,11,51,"baseline",1909,7,10000,5,0.75,37,1,126.961538461538,"rew-eff","planning","14:35:08",0,88,4,2,0.2,0.75,0.55,0.2,1,0.75,7,5,1,7,1,"planning",68
"288","subREX_4","see raw data",1420632,"route 2",7,1436690,0.55,51,11,51,"planning",2112,7,10000,5,0.75,37,1,138.44,"rew-eff","planning","14:35:08",0,88,4,2,0.2,0.75,0.55,0.2,1,0.75,7,5,1,7,2,"planning",68
"289","subREX_4","see raw data",1436690,"route 2",13,1452161,0.2,53,12,51,"planning",2110,6,10000,4,0.75,14,1,119.211538461538,"rew-eff","planning","14:35:08",0,88,4,2,0.55,0.75,0.2,0.55,1,0.75,6,4,1,6,2,"planning",68
"290","subREX_4","see raw data",505369,"route 2",13,523204,0.2,52,12,51,"baseline",3671,6,10000,4,0.75,14,1,138.634615384615,"rew-eff","planning","14:35:08",0,88,4,2,0.55,0.75,0.2,0.55,1,0.75,6,4,1,6,1,"planning",68
"291","subREX_4","see raw data",1452161,"route 1",16,1464834,0.35,25,13,65,"planning",1894,5,10000,3,0.95,24,1,152.208333333333,"rew-eff","planning","14:35:08",0,88,4,2,0.6,0.35,0.95,-0.6,0,0.95,3,5,0,5,2,"planning",68
"292","subREX_4","see raw data",523204,"route 1",16,535072,0.35,25,13,65,"baseline",1710,5,10000,3,0.95,24,1,130.76,"rew-eff","planning","14:35:08",0,88,4,2,0.6,0.35,0.95,-0.6,0,0.95,3,5,0,5,1,"planning",68
"293","subREX_4","see raw data",535072,"route 2",24,545782,0.95,16,14,14,"baseline",2162,8,10000,1,0.2,65,1,112.733333333333,"rew-eff","planning","14:35:08",0,88,4,7,0.75,0.2,0.95,-0.75,0,0.95,8,1,1,8,1,"planning",68
"294","subREX_4","see raw data",1464834,"route 2",24,1476233,0.95,14,14,14,"planning",1811,8,10000,1,0.2,65,1,186.785714285714,"rew-eff","planning","14:35:08",0,88,4,7,0.75,0.2,0.95,-0.75,0,0.95,8,1,1,8,2,"planning",68
"295","subREX_4","see raw data",1476233,"route 2",27,1490010,0.75,24,15,24,"planning",2815,3,10000,4,0.35,51,1,171.95652173913,"rew-eff","planning","14:35:08",0,88,4,1,0.4,0.35,0.75,-0.4,0,0.75,3,4,0,4,2,"planning",68
"296","subREX_4","see raw data",545782,"route 2",27,558002,0.75,24,15,24,"baseline",2263,3,10000,4,0.35,51,1,126.782608695652,"rew-eff","planning","14:35:08",0,88,4,1,0.4,0.35,0.75,-0.4,0,0.75,3,4,0,4,1,"planning",68
"297","subREX_4","see raw data",1490010,"route 1",33,1504107,0.55,38,16,14,"planning",2330,5,10000,6,0.2,37,1,135.459459459459,"rew-eff","planning","14:35:08",0,88,4,1,0.35,0.55,0.2,0.35,1,0.55,6,5,1,6,2,"planning",68
"298","subREX_4","see raw data",558002,"route 2",32,570356,0.55,15,16,14,"baseline",3420,5,10000,6,0.2,37,1,140.8,"rew-eff","planning","14:35:08",0,88,4,1,0.35,0.2,0.55,-0.35,0,0.55,5,6,0,6,1,"planning",68
"299","subREX_4","see raw data",570356,"route 2",35,581854,0.95,15,17,14,"baseline",2749,3,10000,5,0.2,65,1,129.6,"rew-eff","planning","14:35:08",0,88,4,2,0.75,0.2,0.95,-0.75,0,0.95,3,5,0,5,1,"planning",68
"300","subREX_4","see raw data",1504107,"route 1",38,1520903,0.95,65,17,14,"planning",3637,3,10000,5,0.2,65,1,98.9846153846154,"rew-eff","planning","14:35:08",0,88,4,2,0.75,0.95,0.2,0.75,1,0.95,5,3,1,5,2,"planning",68
"301","subREX_4","see raw data",581854,"route 2",39,593320,0.95,25,18,24,"baseline",1492,4,10000,5,0.35,65,1,126.76,"rew-eff","planning","14:35:08",0,88,4,1,0.6,0.35,0.95,-0.6,0,0.95,4,5,0,5,1,"planning",68
"302","subREX_4","see raw data",1520903,"route 2",42,1534581,0.95,25,18,24,"planning",3335,4,10000,5,0.35,65,1,138.916666666667,"rew-eff","planning","14:35:08",0,88,4,1,0.6,0.35,0.95,-0.6,0,0.95,4,5,0,5,2,"planning",68
"303","subREX_4","see raw data",1534581,"route 2",45,1547219,0.95,15,19,14,"planning",3906,3,10000,5,0.2,65,1,122.933333333333,"rew-eff","planning","14:35:08",0,88,4,2,0.75,0.2,0.95,-0.75,0,0.95,3,5,0,5,2,"planning",68
"304","subREX_4","see raw data",593320,"route 2",42,604165,0.95,14,19,14,"baseline",1878,3,10000,5,0.2,65,1,158.071428571429,"rew-eff","planning","14:35:08",0,88,4,2,0.75,0.2,0.95,-0.75,0,0.95,3,5,0,5,1,"planning",68
"305","subREX_4","see raw data",1547219,"route 1",52,1562037,0.95,65,20,37,"planning",1459,4,10000,7,0.55,65,1,102.384615384615,"rew-eff","planning","14:35:08",0,88,4,3,0.4,0.95,0.55,0.4,1,0.95,7,4,1,7,2,"planning",68
"306","subREX_4","see raw data",604165,"route 1",49,620927,0.95,66,20,37,"baseline",2179,4,10000,7,0.55,65,1,117.818181818182,"rew-eff","planning","14:35:08",0,88,4,3,0.4,0.95,0.55,0.4,1,0.95,7,4,1,7,1,"planning",68
"307","subREX_4","see raw data",620927,"route 2",55,633030,0.75,15,21,14,"baseline",3336,6,10000,7,0.2,51,1,133.866666666667,"rew-eff","planning","14:35:08",0,88,4,1,0.55,0.2,0.75,-0.55,0,0.75,6,7,0,7,1,"planning",68
"308","subREX_4","see raw data",1562037,"route 1",59,1576201,0.75,52,21,14,"planning",2213,6,10000,7,0.2,51,1,101.21568627451,"rew-eff","planning","14:35:08",0,88,4,1,0.55,0.75,0.2,0.55,1,0.75,7,6,1,7,2,"planning",68
"309","subREX_4","see raw data",652138,"route 2",3,665866,0.95,37,22,37,"baseline",1945,3,10000,4,0.55,65,1,127.810810810811,"rew-eff","planning","14:35:08",0,88,4,1,0.4,0.55,0.95,-0.4,0,0.95,3,4,0,4,1,"planning",68
"310","subREX_4","see raw data",1839783,"route 2",3,1854456,0.95,37,22,37,"planning",1921,3,10000,4,0.55,65,1,161.083333333333,"rew-eff","planning","14:35:08",0,88,4,1,0.4,0.55,0.95,-0.4,0,0.95,3,4,0,4,2,"planning",68
"311","subREX_4","see raw data",665866,"route 1",7,677131,0.2,14,23,65,"baseline",2681,6,10000,4,0.95,14,1,129.285714285714,"rew-eff","planning","14:35:08",0,88,4,2,0.75,0.2,0.95,-0.75,0,0.95,4,6,0,6,1,"planning",68
"312","subREX_4","see raw data",1854456,"route 2",9,1871101,0.2,65,23,65,"planning",2707,6,10000,4,0.95,14,1,108.34375,"rew-eff","planning","14:35:08",0,88,4,2,0.75,0.95,0.2,0.75,1,0.95,6,4,1,6,2,"planning",68
"313","subREX_4","see raw data",1871101,"route 2",16,1885140,0.35,37,24,37,"planning",1688,7,10000,3,0.55,24,1,152.675675675676,"rew-eff","planning","14:35:08",0,88,4,4,0.2,0.55,0.35,0.2,1,0.55,7,3,1,7,2,"planning",68
"314","subREX_4","see raw data",677131,"route 2",14,690021,0.35,38,24,37,"baseline",1526,7,10000,3,0.55,24,1,116,"rew-eff","planning","14:35:08",0,88,4,4,0.2,0.55,0.35,0.2,1,0.55,7,3,1,7,1,"planning",68
"315","subREX_4","see raw data",1885140,"route 1",23,1898894,0.35,24,25,14,"planning",3811,6,10000,7,0.2,24,1,135.083333333333,"rew-eff","planning","14:35:08",0,88,4,1,0.15,0.35,0.2,0.15,1,0.35,7,6,1,7,2,"planning",68
"316","subREX_4","see raw data",690021,"route 1",21,703079,0.35,25,25,14,"baseline",2900,6,10000,7,0.2,24,1,138.291666666667,"rew-eff","planning","14:35:08",0,88,4,1,0.15,0.35,0.2,0.15,1,0.35,7,6,1,7,1,"planning",68
"317","subREX_4","see raw data",703079,"route 2",27,720143,0.2,52,26,51,"baseline",3704,6,10000,4,0.75,14,1,128.25,"rew-eff","planning","14:35:08",0,88,4,2,0.55,0.75,0.2,0.55,1,0.75,6,4,1,6,1,"planning",68
"318","subREX_4","see raw data",1898894,"route 2",29,1915907,0.2,52,26,51,"planning",2474,6,10000,4,0.75,14,1,145.470588235294,"rew-eff","planning","14:35:08",0,88,4,2,0.55,0.75,0.2,0.55,1,0.75,6,4,1,6,2,"planning",68
"319","subREX_4","see raw data",720143,"route 1",35,731038,0.2,14,27,65,"baseline",1927,1,10000,8,0.95,14,1,155.642857142857,"rew-eff","planning","14:35:08",0,88,4,7,0.75,0.2,0.95,-0.75,0,0.95,8,1,1,8,1,"planning",68
"320","subREX_4","see raw data",1915907,"route 1",37,1927121,0.2,15,27,65,"planning",1823,1,10000,8,0.95,14,1,188.571428571429,"rew-eff","planning","14:35:08",0,88,4,7,0.75,0.2,0.95,-0.75,0,0.95,8,1,1,8,2,"planning",68
"321","subREX_4","see raw data",1927121,"route 1",44,1944686,0.75,51,28,24,"planning",3610,6,10000,7,0.35,51,1,141.235294117647,"rew-eff","planning","14:35:08",0,88,4,1,0.4,0.75,0.35,0.4,1,0.75,7,6,1,7,2,"planning",68
"322","subREX_4","see raw data",731038,"route 1",42,746743,0.75,51,28,24,"baseline",1959,6,10000,7,0.35,51,1,129.76,"rew-eff","planning","14:35:08",0,88,4,1,0.4,0.75,0.35,0.4,1,0.75,7,6,1,7,1,"planning",68
"323","subREX_4","see raw data",1944686,"route 1",47,1959342,0.35,24,29,65,"planning",4679,4,10000,3,0.95,24,1,135.125,"rew-eff","planning","14:35:08",0,88,4,1,0.6,0.35,0.95,-0.6,0,0.95,3,4,0,4,2,"planning",68
"324","subREX_4","see raw data",746743,"route 1",45,759583,0.35,25,29,65,"baseline",2081,4,10000,3,0.95,24,1,164.875,"rew-eff","planning","14:35:08",0,88,4,1,0.6,0.35,0.95,-0.6,0,0.95,3,4,0,4,1,"planning",68
"325","subREX_4","see raw data",759583,"route 1",51,772272,0.35,25,30,14,"baseline",2296,5,10000,6,0.2,24,1,143.52,"rew-eff","planning","14:35:08",0,88,4,1,0.15,0.35,0.2,0.15,1,0.35,6,5,1,6,1,"planning",68
"326","subREX_4","see raw data",1959342,"route 1",53,1971842,0.35,24,30,14,"planning",1956,5,10000,6,0.2,24,1,164.95652173913,"rew-eff","planning","14:35:08",0,88,4,1,0.15,0.35,0.2,0.15,1,0.35,6,5,1,6,2,"planning",68
"327","subREX_4","see raw data",772272,"route 2",56,787359,0.2,38,31,37,"baseline",2531,5,10000,3,0.55,14,1,155.405405405405,"rew-eff","planning","14:35:08",0,88,4,2,0.35,0.55,0.2,0.35,1,0.55,5,3,1,5,1,"planning",68
"328","subREX_4","see raw data",1971842,"route 2",58,1987301,0.2,37,31,37,"planning",2706,5,10000,3,0.55,14,1,161.72972972973,"rew-eff","planning","14:35:08",0,88,4,2,0.35,0.55,0.2,0.35,1,0.55,5,3,1,5,2,"planning",68
"329","subREX_4","see raw data",787359,"route 1",63,805227,0.95,66,32,14,"baseline",3503,3,10000,7,0.2,65,1,117.545454545455,"rew-eff","planning","14:35:08",0,88,4,4,0.75,0.95,0.2,0.75,1,0.95,7,3,1,7,1,"planning",68
"330","subREX_4","see raw data",1987301,"route 1",65,2003880,0.95,66,32,14,"planning",1822,3,10000,7,0.2,65,1,123.575757575758,"rew-eff","planning","14:35:08",0,88,4,4,0.75,0.95,0.2,0.75,1,0.95,7,3,1,7,2,"planning",68
"331","subREX_4","see raw data",814865,"route 2",7,831024,0.2,51,33,51,"baseline",2397,7,10000,6,0.75,14,1,136.76,"rew-eff","planning","14:35:08",0,88,4,1,0.55,0.75,0.2,0.55,1,0.75,7,6,1,7,1,"planning",68
"332","subREX_4","see raw data",2028062,"route 1",6,2041503,0.2,14,33,51,"planning",5047,7,10000,6,0.75,14,1,114.307692307692,"rew-eff","planning","14:35:08",0,88,4,1,0.55,0.2,0.75,-0.55,0,0.75,6,7,0,7,2,"planning",68
"333","subREX_4","see raw data",831024,"route 2",12,845053,0.35,37,34,37,"baseline",2230,5,10000,4,0.55,24,1,139.135135135135,"rew-eff","planning","14:35:08",0,88,4,1,0.2,0.55,0.35,0.2,1,0.55,5,4,1,5,1,"planning",68
"334","subREX_4","see raw data",2041503,"route 2",11,2055103,0.35,37,34,37,"planning",1837,5,10000,4,0.55,24,1,135.054054054054,"rew-eff","planning","14:35:08",0,88,4,1,0.2,0.55,0.35,0.2,1,0.55,5,4,1,5,2,"planning",68
"335","subREX_4","see raw data",2055103,"route 1",15,2070110,0.55,37,35,65,"planning",2873,5,10000,4,0.95,37,1,149.513513513514,"rew-eff","planning","14:35:08",0,88,4,1,0.4,0.55,0.95,-0.4,0,0.95,4,5,0,5,2,"planning",68
"336","subREX_4","see raw data",845053,"route 1",16,860375,0.55,37,35,65,"baseline",3569,5,10000,4,0.95,37,1,136.888888888889,"rew-eff","planning","14:35:08",0,88,4,1,0.4,0.55,0.95,-0.4,0,0.95,4,5,0,5,1,"planning",68
"337","subREX_4","see raw data",860375,"route 1",23,874354,0.55,37,36,24,"baseline",1810,4,10000,7,0.35,37,1,143.594594594595,"rew-eff","planning","14:35:08",0,88,4,3,0.2,0.55,0.35,0.2,1,0.55,7,4,1,7,1,"planning",68
"338","subREX_4","see raw data",2070110,"route 1",22,2084249,0.55,37,36,24,"planning",1787,4,10000,7,0.35,37,1,153.194444444444,"rew-eff","planning","14:35:08",0,88,4,3,0.2,0.55,0.35,0.2,1,0.55,7,4,1,7,2,"planning",68
"339","subREX_4","see raw data",874354,"route 2",30,892189,0.2,66,37,65,"baseline",2885,7,10000,3,0.95,14,1,125.424242424242,"rew-eff","planning","14:35:08",0,88,4,4,0.75,0.95,0.2,0.75,1,0.95,7,3,1,7,1,"planning",68
"340","subREX_4","see raw data",2084249,"route 2",29,2100360,0.2,65,37,65,"planning",2975,7,10000,3,0.95,14,1,100.276923076923,"rew-eff","planning","14:35:08",0,88,4,4,0.75,0.95,0.2,0.75,1,0.95,7,3,1,7,2,"planning",68
"341","subREX_4","see raw data",2100360,"route 1",35,2116470,0.95,66,38,37,"planning",2357,3,10000,6,0.55,65,1,107.106060606061,"rew-eff","planning","14:35:08",0,88,4,3,0.4,0.95,0.55,0.4,1,0.95,6,3,1,6,2,"planning",68
"342","subREX_4","see raw data",892189,"route 1",36,909487,0.95,65,38,37,"baseline",2547,3,10000,6,0.55,65,1,123.738461538462,"rew-eff","planning","14:35:08",0,88,4,3,0.4,0.95,0.55,0.4,1,0.95,6,3,1,6,1,"planning",68
"343","subREX_4","see raw data",2116470,"route 2",41,2133166,0.35,66,39,65,"planning",3744,6,10000,4,0.95,24,1,93.5538461538462,"rew-eff","planning","14:35:08",0,88,4,2,0.6,0.95,0.35,0.6,1,0.95,6,4,1,6,2,"planning",68
"344","subREX_4","see raw data",909487,"route 2",42,926669,0.35,67,39,65,"baseline",2447,6,10000,4,0.95,24,1,122.393939393939,"rew-eff","planning","14:35:08",0,88,4,2,0.6,0.95,0.35,0.6,1,0.95,6,4,1,6,1,"planning",68
"345","subREX_4","see raw data",926669,"route 1",48,942508,0.75,52,40,14,"baseline",1845,4,10000,6,0.2,51,1,111.372549019608,"rew-eff","planning","14:35:08",0,88,4,2,0.55,0.75,0.2,0.55,1,0.75,6,4,1,6,1,"planning",68
"346","subREX_4","see raw data",2133166,"route 1",47,2147772,0.75,51,40,14,"planning",2072,4,10000,6,0.2,51,1,110.98,"rew-eff","planning","14:35:08",0,88,4,2,0.55,0.75,0.2,0.55,1,0.75,6,4,1,6,2,"planning",68
"347","subREX_4","see raw data",2147772,"route 2",53,2163398,0.75,66,41,65,"planning",2657,6,10000,4,0.95,51,1,92.7846153846154,"rew-eff","planning","14:35:08",0,88,4,2,0.2,0.95,0.75,0.2,1,0.95,6,4,1,6,2,"planning",68
"348","subREX_4","see raw data",942508,"route 2",54,958215,0.75,67,41,65,"baseline",1676,6,10000,4,0.95,51,1,106.151515151515,"rew-eff","planning","14:35:08",0,88,4,2,0.2,0.95,0.75,0.2,1,0.95,6,4,1,6,1,"planning",68
"349","subREX_4","see raw data",2163398,"route 2",60,2176600,0.2,38,42,37,"planning",2056,7,10000,5,0.55,14,1,110.648648648649,"rew-eff","planning","14:35:08",0,88,4,2,0.35,0.55,0.2,0.35,1,0.55,7,5,1,7,2,"planning",68
"350","subREX_4","see raw data",958215,"route 2",61,971859,0.2,37,42,37,"baseline",1877,7,10000,5,0.55,14,1,137.75,"rew-eff","planning","14:35:08",0,88,4,2,0.35,0.55,0.2,0.35,1,0.55,7,5,1,7,1,"planning",68
"351","subREX_4","see raw data",2176600,"route 1",66,2190137,0.35,25,43,65,"planning",2975,7,10000,6,0.95,24,1,153.68,"rew-eff","planning","14:35:08",0,88,4,1,0.6,0.35,0.95,-0.6,0,0.95,6,7,0,7,2,"planning",68
"352","subREX_4","see raw data",971859,"route 2",68,987599,0.35,65,43,65,"baseline",1794,7,10000,6,0.95,24,1,97.15625,"rew-eff","planning","14:35:08",0,88,4,1,0.6,0.95,0.35,0.6,1,0.95,7,6,1,7,1,"planning",68
"353","subREX_5","see raw data",603067,"route 2",3,623933,0.95,23,0,22,"baseline",10467,3,10000,7,0.35,61,1,142.04347826087,"rew-eff","planning","17:09:08",0,88,5,4,0.6,0.35,0.95,-0.6,0,0.95,3,7,0,7,1,"planning",64
"354","subREX_5","see raw data",0,"route 1",7,2203961,0.95,61,0,22,"planning",2499,3,10000,7,0.35,61,1,149.72131147541,"rew-eff","planning","17:09:08",0,88,5,4,0.6,0.95,0.35,0.6,1,0.95,7,3,1,7,2,"planning",64
"355","subREX_5","see raw data",623933,"route 1",10,643999,0.95,62,1,48,"baseline",4267,4,10000,7,0.75,61,1,143.688524590164,"rew-eff","planning","17:09:08",0,88,5,3,0.2,0.95,0.75,0.2,1,0.95,7,4,1,7,1,"planning",64
"356","subREX_5","see raw data",2203961,"route 2",11,2219694,0.95,49,1,48,"planning",1734,4,10000,7,0.75,61,1,148.30612244898,"rew-eff","planning","17:09:08",0,88,5,3,0.2,0.75,0.95,-0.2,0,0.95,4,7,0,7,2,"planning",64
"357","subREX_5","see raw data",643999,"route 2",16,658399,0.2,35,2,35,"baseline",2401,6,10000,4,0.55,13,1,145.714285714286,"rew-eff","planning","17:09:08",0,88,5,2,0.35,0.55,0.2,0.35,1,0.55,6,4,1,6,1,"planning",64
"358","subREX_5","see raw data",2219694,"route 2",17,2242161,0.2,35,2,35,"planning",9700,6,10000,4,0.55,13,1,173.371428571429,"rew-eff","planning","17:09:08",0,88,5,2,0.35,0.55,0.2,0.35,1,0.55,6,4,1,6,2,"planning",64
"359","subREX_5","see raw data",2242161,"route 1",22,2258761,0.75,48,3,13,"planning",1833,4,10000,5,0.2,48,1,163.1875,"rew-eff","planning","17:09:08",0,88,5,1,0.55,0.75,0.2,0.55,1,0.75,5,4,1,5,2,"planning",64
"360","subREX_5","see raw data",658399,"route 1",21,677266,0.75,49,3,13,"baseline",5066,4,10000,5,0.2,48,1,138.1875,"rew-eff","planning","17:09:08",0,88,5,1,0.55,0.75,0.2,0.55,1,0.75,5,4,1,5,1,"planning",64
"361","subREX_5","see raw data",677266,"route 1",26,700932,0.75,49,4,61,"baseline",9266,7,10000,5,0.95,48,1,152.387755102041,"rew-eff","planning","17:09:08",0,88,5,2,0.2,0.75,0.95,-0.2,0,0.95,5,7,0,7,1,"planning",64
"362","subREX_5","see raw data",2258761,"route 1",27,2275459,0.75,48,4,61,"planning",2101,7,10000,5,0.95,48,1,161.791666666667,"rew-eff","planning","17:09:08",0,88,5,2,0.2,0.75,0.95,-0.2,0,0.95,5,7,0,7,2,"planning",64
"363","subREX_5","see raw data",700932,"route 2",29,715831,0.95,36,5,35,"baseline",2500,3,10000,6,0.55,61,1,147.222222222222,"rew-eff","planning","17:09:08",0,88,5,3,0.4,0.55,0.95,-0.4,0,0.95,3,6,0,6,1,"planning",64
"364","subREX_5","see raw data",2275459,"route 2",30,2289894,0.95,35,5,35,"planning",1600,3,10000,6,0.55,61,1,166.714285714286,"rew-eff","planning","17:09:08",0,88,5,3,0.4,0.55,0.95,-0.4,0,0.95,3,6,0,6,2,"planning",64
"365","subREX_5","see raw data",715831,"route 2",35,736865,0.55,49,6,48,"baseline",5467,6,10000,4,0.75,35,1,171.541666666667,"rew-eff","planning","17:09:08",0,88,5,2,0.2,0.75,0.55,0.2,1,0.75,6,4,1,6,1,"planning",64
"366","subREX_5","see raw data",2289894,"route 1",34,2308327,0.55,36,6,48,"planning",6033,6,10000,4,0.75,35,1,158.114285714286,"rew-eff","planning","17:09:08",0,88,5,2,0.2,0.55,0.75,-0.2,0,0.75,4,6,0,6,2,"planning",64
"367","subREX_5","see raw data",736865,"route 1",38,897796,0.2,14,7,61,"baseline",152097,6,10000,3,0.95,13,1,138.461538461538,"rew-eff","planning","17:09:08",0,88,5,3,0.75,0.2,0.95,-0.75,0,0.95,3,6,0,6,1,"planning",64
"368","subREX_5","see raw data",2308327,"route 2",40,2340292,0.2,62,7,61,"planning",15732,6,10000,3,0.95,13,1,150,"rew-eff","planning","17:09:08",0,88,5,3,0.75,0.95,0.2,0.75,1,0.95,6,3,1,6,2,"planning",64
"369","subREX_5","see raw data",2340292,"route 2",45,2352593,0.2,23,8,22,"planning",2333,5,10000,4,0.35,13,1,144.913043478261,"rew-eff","planning","17:09:08",0,88,5,1,0.15,0.35,0.2,0.15,1,0.35,5,4,1,5,2,"planning",64
"370","subREX_5","see raw data",897796,"route 2",43,916795,0.2,23,8,22,"baseline",8400,5,10000,4,0.35,13,1,162.260869565217,"rew-eff","planning","17:09:08",0,88,5,1,0.15,0.35,0.2,0.15,1,0.35,5,4,1,5,1,"planning",64
"371","subREX_5","see raw data",2352593,"route 2",48,2364725,0.95,22,9,22,"planning",1501,3,10000,6,0.35,61,1,166.666666666667,"rew-eff","planning","17:09:08",0,88,5,3,0.6,0.35,0.95,-0.6,0,0.95,3,6,0,6,2,"planning",64
"372","subREX_5","see raw data",916795,"route 1",49,934729,0.95,61,9,22,"baseline",2734,3,10000,6,0.35,61,1,133.344262295082,"rew-eff","planning","17:09:08",0,88,5,3,0.6,0.95,0.35,0.6,1,0.95,6,3,1,6,1,"planning",64
"373","subREX_5","see raw data",934729,"route 1",53,946495,0.35,22,10,13,"baseline",2000,3,10000,4,0.2,22,1,131.772727272727,"rew-eff","planning","17:09:08",0,88,5,1,0.15,0.35,0.2,0.15,1,0.35,4,3,1,4,1,"planning",64
"374","subREX_5","see raw data",2364725,"route 1",52,2378692,0.35,23,10,13,"planning",3768,3,10000,4,0.2,22,1,152.217391304348,"rew-eff","planning","17:09:08",0,88,5,1,0.15,0.35,0.2,0.15,1,0.35,4,3,1,4,2,"planning",64
"375","subREX_5","see raw data",1021428,"route 2",7,1039494,0.55,49,11,48,"baseline",3700,7,10000,5,0.75,35,1,152.75,"rew-eff","planning","17:09:08",0,88,5,2,0.2,0.75,0.55,0.2,1,0.75,7,5,1,7,1,"planning",64
"376","subREX_5","see raw data",2397192,"route 2",7,2413991,0.55,48,11,48,"planning",2633,7,10000,5,0.75,35,1,154.617021276596,"rew-eff","planning","17:09:08",0,88,5,2,0.2,0.75,0.55,0.2,1,0.75,7,5,1,7,2,"planning",64
"377","subREX_5","see raw data",1039494,"route 2",13,1062126,0.2,48,12,48,"baseline",8833,6,10000,4,0.75,13,1,144.4375,"rew-eff","planning","17:09:08",0,88,5,2,0.55,0.75,0.2,0.55,1,0.75,6,4,1,6,1,"planning",64
"378","subREX_5","see raw data",2413991,"route 2",13,2431257,0.2,48,12,48,"planning",2232,6,10000,4,0.75,13,1,173.604166666667,"rew-eff","planning","17:09:08",0,88,5,2,0.55,0.75,0.2,0.55,1,0.75,6,4,1,6,2,"planning",64
"379","subREX_5","see raw data",1062126,"route 1",16,1074927,0.35,23,13,61,"baseline",3000,5,10000,3,0.95,22,1,127.272727272727,"rew-eff","planning","17:09:08",0,88,5,2,0.6,0.35,0.95,-0.6,0,0.95,3,5,0,5,1,"planning",64
"380","subREX_5","see raw data",2431257,"route 1",16,2443958,0.35,22,13,61,"planning",2099,5,10000,3,0.95,22,1,176.190476190476,"rew-eff","planning","17:09:08",0,88,5,2,0.6,0.35,0.95,-0.6,0,0.95,3,5,0,5,2,"planning",64
"381","subREX_5","see raw data",2443958,"route 2",24,2462224,0.95,14,14,13,"planning",9733,8,10000,1,0.2,61,1,138.384615384615,"rew-eff","planning","17:09:08",0,88,5,7,0.75,0.2,0.95,-0.75,0,0.95,8,1,1,8,2,"planning",64
"382","subREX_5","see raw data",1074927,"route 2",24,1085794,0.95,14,14,13,"baseline",2433,8,10000,1,0.2,61,1,115.461538461538,"rew-eff","planning","17:09:08",0,88,5,7,0.75,0.2,0.95,-0.75,0,0.95,8,1,1,8,1,"planning",64
"383","subREX_5","see raw data",2462224,"route 2",27,2482090,0.75,22,15,22,"planning",6899,3,10000,4,0.35,48,1,186.318181818182,"rew-eff","planning","17:09:08",0,88,5,1,0.4,0.35,0.75,-0.4,0,0.75,3,4,0,4,2,"planning",64
"384","subREX_5","see raw data",1085794,"route 1",28,1102226,0.75,48,15,22,"baseline",1866,3,10000,4,0.35,48,1,162.5,"rew-eff","planning","17:09:08",0,88,5,1,0.4,0.75,0.35,0.4,1,0.75,4,3,1,4,1,"planning",64
"385","subREX_5","see raw data",1102226,"route 1",34,1132993,0.55,35,16,13,"baseline",18765,5,10000,6,0.2,35,1,148.542857142857,"rew-eff","planning","17:09:08",0,88,5,1,0.35,0.55,0.2,0.35,1,0.55,6,5,1,6,1,"planning",64
"386","subREX_5","see raw data",2482090,"route 1",33,2516257,0.55,35,16,13,"planning",18433,5,10000,6,0.2,35,1,152.4,"rew-eff","planning","17:09:08",0,88,5,1,0.35,0.55,0.2,0.35,1,0.55,6,5,1,6,2,"planning",64
"387","subREX_5","see raw data",2516257,"route 2",36,2526557,0.95,14,17,13,"planning",1500,3,10000,5,0.2,61,1,151.307692307692,"rew-eff","planning","17:09:08",0,88,5,2,0.75,0.2,0.95,-0.75,0,0.95,3,5,0,5,2,"planning",64
"388","subREX_5","see raw data",1132993,"route 2",37,1153226,0.95,13,17,13,"baseline",11401,3,10000,5,0.2,61,1,161.25,"rew-eff","planning","17:09:08",0,88,5,2,0.75,0.2,0.95,-0.75,0,0.95,3,5,0,5,1,"planning",64
"389","subREX_5","see raw data",1153226,"route 2",41,1165093,0.95,22,18,22,"baseline",1666,4,10000,5,0.35,61,1,153,"rew-eff","planning","17:09:08",0,88,5,1,0.6,0.35,0.95,-0.6,0,0.95,4,5,0,5,1,"planning",64
"390","subREX_5","see raw data",2526557,"route 2",40,2555523,0.95,23,18,22,"planning",2733,4,10000,5,0.35,61,1,163.636363636364,"rew-eff","planning","17:09:08",0,88,5,1,0.6,0.35,0.95,-0.6,0,0.95,4,5,0,5,2,"planning",64
"391","subREX_5","see raw data",2555523,"route 2",43,2567723,0.95,13,19,13,"planning",3233,3,10000,5,0.2,61,1,153.846153846154,"rew-eff","planning","17:09:08",0,88,5,2,0.75,0.2,0.95,-0.75,0,0.95,3,5,0,5,2,"planning",64
"392","subREX_5","see raw data",1165093,"route 2",44,1177308,0.95,14,19,13,"baseline",2400,3,10000,5,0.2,61,1,151.307692307692,"rew-eff","planning","17:09:08",0,88,5,2,0.75,0.2,0.95,-0.75,0,0.95,3,5,0,5,1,"planning",64
"393","subREX_5","see raw data",2567723,"route 2",47,2582189,0.95,35,20,35,"planning",1432,4,10000,7,0.55,61,1,179.411764705882,"rew-eff","planning","17:09:08",0,88,5,3,0.4,0.55,0.95,-0.4,0,0.95,4,7,0,7,2,"planning",64
"394","subREX_5","see raw data",1177308,"route 2",48,1194242,0.95,35,20,35,"baseline",2533,4,10000,7,0.55,61,1,160.735294117647,"rew-eff","planning","17:09:08",0,88,5,3,0.4,0.55,0.95,-0.4,0,0.95,4,7,0,7,1,"planning",64
"395","subREX_5","see raw data",1194242,"route 2",54,1208375,0.75,14,21,13,"baseline",5133,6,10000,7,0.2,48,1,154.785714285714,"rew-eff","planning","17:09:08",0,88,5,1,0.55,0.2,0.75,-0.55,0,0.75,6,7,0,7,1,"planning",64
"396","subREX_5","see raw data",2582189,"route 2",53,2602489,0.75,14,21,13,"planning",11499,6,10000,7,0.2,48,1,151.230769230769,"rew-eff","planning","17:09:08",0,88,5,1,0.55,0.2,0.75,-0.55,0,0.75,6,7,0,7,2,"planning",64
"397","subREX_5","see raw data",2644421,"route 2",3,2658955,0.95,35,22,35,"planning",1700,3,10000,4,0.55,61,1,167.6,"rew-eff","planning","17:09:08",0,88,5,1,0.4,0.55,0.95,-0.4,0,0.95,3,4,0,4,2,"planning",64
"398","subREX_5","see raw data",1220841,"route 2",3,1242007,0.95,35,22,35,"baseline",8400,3,10000,4,0.55,61,1,169.514285714286,"rew-eff","planning","17:09:08",0,88,5,1,0.4,0.55,0.95,-0.4,0,0.95,3,4,0,4,1,"planning",64
"399","subREX_5","see raw data",1242007,"route 1",7,1253241,0.2,14,23,61,"baseline",2233,6,10000,4,0.95,13,1,152.357142857143,"rew-eff","planning","17:09:08",0,88,5,2,0.75,0.2,0.95,-0.75,0,0.95,4,6,0,6,1,"planning",64
"400","subREX_5","see raw data",2658955,"route 1",7,2681688,0.2,14,23,61,"planning",13201,6,10000,4,0.95,13,1,164.466666666667,"rew-eff","planning","17:09:08",0,88,5,2,0.75,0.2,0.95,-0.75,0,0.95,4,6,0,6,2,"planning",64
"401","subREX_5","see raw data",2681688,"route 2",14,2697254,0.35,35,24,35,"planning",1967,7,10000,3,0.55,22,1,156.2,"rew-eff","planning","17:09:08",0,88,5,4,0.2,0.55,0.35,0.2,1,0.55,7,3,1,7,2,"planning",64
"402","subREX_5","see raw data",1253241,"route 2",14,1312706,0.35,36,24,35,"baseline",47267,7,10000,3,0.55,22,1,147.222222222222,"rew-eff","planning","17:09:08",0,88,5,4,0.2,0.55,0.35,0.2,1,0.55,7,3,1,7,1,"planning",64
"403","subREX_5","see raw data",1312706,"route 1",21,1327007,0.35,23,25,13,"baseline",3900,6,10000,7,0.2,22,1,142,"rew-eff","planning","17:09:08",0,88,5,1,0.15,0.35,0.2,0.15,1,0.35,7,6,1,7,1,"planning",64
"404","subREX_5","see raw data",2697254,"route 2",20,2708388,0.35,14,25,13,"planning",2366,6,10000,7,0.2,22,1,148.692307692308,"rew-eff","planning","17:09:08",0,88,5,1,0.15,0.2,0.35,-0.15,0,0.35,6,7,0,7,2,"planning",64
"405","subREX_5","see raw data",2708388,"route 2",26,2726554,0.2,48,26,48,"planning",4166,6,10000,4,0.75,13,1,146.5,"rew-eff","planning","17:09:08",0,88,5,2,0.55,0.75,0.2,0.55,1,0.75,6,4,1,6,2,"planning",64
"406","subREX_5","see raw data",1327007,"route 2",27,1346006,0.2,49,26,48,"baseline",3800,6,10000,4,0.75,13,1,154.895833333333,"rew-eff","planning","17:09:08",0,88,5,2,0.55,0.75,0.2,0.55,1,0.75,6,4,1,6,1,"planning",64
"407","subREX_5","see raw data",2726554,"route 1",34,2747020,0.2,14,27,61,"planning",11634,1,10000,8,0.95,13,1,152.428571428571,"rew-eff","planning","17:09:08",0,88,5,7,0.75,0.2,0.95,-0.75,0,0.95,8,1,1,8,2,"planning",64
"408","subREX_5","see raw data",1346006,"route 1",35,1359307,0.2,13,27,61,"baseline",4500,1,10000,8,0.95,13,1,144.416666666667,"rew-eff","planning","17:09:08",0,88,5,7,0.75,0.2,0.95,-0.75,0,0.95,8,1,1,8,1,"planning",64
"409","subREX_5","see raw data",1359307,"route 2",41,1373906,0.75,22,28,22,"baseline",3234,6,10000,7,0.35,48,1,185.714285714286,"rew-eff","planning","17:09:08",0,88,5,1,0.4,0.35,0.75,-0.4,0,0.75,6,7,0,7,1,"planning",64
"410","subREX_5","see raw data",2747020,"route 2",40,2759521,0.75,22,28,22,"planning",2066,6,10000,7,0.35,48,1,171.181818181818,"rew-eff","planning","17:09:08",0,88,5,1,0.4,0.35,0.75,-0.4,0,0.75,6,7,0,7,2,"planning",64
"411","subREX_5","see raw data",1373906,"route 1",44,1397172,0.35,23,29,61,"baseline",13066,4,10000,3,0.95,22,1,146.304347826087,"rew-eff","planning","17:09:08",0,88,5,1,0.6,0.35,0.95,-0.6,0,0.95,3,4,0,4,1,"planning",64
"412","subREX_5","see raw data",2759521,"route 1",43,2775887,0.35,22,29,61,"planning",5933,4,10000,3,0.95,22,1,166.619047619048,"rew-eff","planning","17:09:08",0,88,5,1,0.6,0.35,0.95,-0.6,0,0.95,3,4,0,4,2,"planning",64
"413","subREX_5","see raw data",1397172,"route 1",50,1410172,0.35,23,30,13,"baseline",2199,5,10000,6,0.2,22,1,172.772727272727,"rew-eff","planning","17:09:08",0,88,5,1,0.15,0.35,0.2,0.15,1,0.35,6,5,1,6,1,"planning",64
"414","subREX_5","see raw data",2775887,"route 1",49,2802853,0.35,23,30,13,"planning",15433,5,10000,6,0.2,22,1,170.95652173913,"rew-eff","planning","17:09:08",0,88,5,1,0.15,0.35,0.2,0.15,1,0.35,6,5,1,6,2,"planning",64
"415","subREX_5","see raw data",2802853,"route 2",54,2825419,0.2,35,31,35,"planning",6799,5,10000,3,0.55,13,1,172.371428571429,"rew-eff","planning","17:09:08",0,88,5,2,0.35,0.55,0.2,0.35,1,0.55,5,3,1,5,2,"planning",64
"416","subREX_5","see raw data",1410172,"route 2",55,1431206,0.2,35,31,35,"baseline",7867,5,10000,3,0.55,13,1,181.382352941176,"rew-eff","planning","17:09:08",0,88,5,2,0.35,0.55,0.2,0.35,1,0.55,5,3,1,5,1,"planning",64
"417","subREX_5","see raw data",1431206,"route 1",55,1461738,0.95,60,32,13,"baseline",8933,3,10000,7,0.2,61,0,157.233333333333,"rew-eff","planning","17:09:08",0,88,5,4,0.75,0.95,0.2,0.75,1,0.95,7,3,1,7,1,"planning",64
"418","subREX_5","see raw data",2825419,"route 2",57,2841419,0.95,13,32,13,"planning",6966,3,10000,7,0.2,61,1,147.166666666667,"rew-eff","planning","17:09:08",0,88,5,4,0.75,0.2,0.95,-0.75,0,0.95,3,7,0,7,2,"planning",64
"419","subREX_5","see raw data",1478070,"route 1",6,1518171,0.2,13,33,48,"baseline",30298,7,10000,6,0.75,13,1,225.538461538462,"rew-eff","planning","17:09:08",0,88,5,1,0.55,0.2,0.75,-0.55,0,0.75,6,7,0,7,1,"planning",64
"420","subREX_5","see raw data",2909918,"route 1",6,2922418,0.2,13,33,48,"planning",3299,7,10000,6,0.75,13,1,174.384615384615,"rew-eff","planning","17:09:08",0,88,5,1,0.55,0.2,0.75,-0.55,0,0.75,6,7,0,7,2,"planning",64
"421","subREX_5","see raw data",1518171,"route 1",10,1566936,0.35,23,34,35,"baseline",37765,5,10000,4,0.55,22,1,187.863636363636,"rew-eff","planning","17:09:08",0,88,5,1,0.2,0.35,0.55,-0.2,0,0.55,4,5,0,5,1,"planning",64
"422","subREX_5","see raw data",2922418,"route 2",11,2938685,0.35,36,34,35,"planning",3701,5,10000,4,0.55,22,1,160.942857142857,"rew-eff","planning","17:09:08",0,88,5,1,0.2,0.55,0.35,0.2,1,0.55,5,4,1,5,2,"planning",64
"423","subREX_5","see raw data",2938685,"route 1",15,2973750,0.55,36,35,61,"planning",22432,5,10000,4,0.95,35,1,164.771428571429,"rew-eff","planning","17:09:08",0,88,5,1,0.4,0.55,0.95,-0.4,0,0.95,4,5,0,5,2,"planning",64
"424","subREX_5","see raw data",1566936,"route 1",14,1667469,0.55,36,35,61,"baseline",87499,5,10000,4,0.95,35,1,166.657142857143,"rew-eff","planning","17:09:08",0,88,5,1,0.4,0.55,0.95,-0.4,0,0.95,4,5,0,5,1,"planning",64
"425","subREX_5","see raw data",1667469,"route 1",21,1688269,0.55,36,36,22,"baseline",8366,4,10000,7,0.35,35,1,154.285714285714,"rew-eff","planning","17:09:08",0,88,5,3,0.2,0.55,0.35,0.2,1,0.55,7,4,1,7,1,"planning",64
"426","subREX_5","see raw data",2973750,"route 1",22,2990550,0.55,36,36,22,"planning",3966,4,10000,7,0.35,35,1,168.571428571429,"rew-eff","planning","17:09:08",0,88,5,3,0.2,0.55,0.35,0.2,1,0.55,7,4,1,7,2,"planning",64
"427","subREX_5","see raw data",2990550,"route 2",29,3009117,0.2,62,37,61,"planning",2765,7,10000,3,0.95,13,1,144.629032258065,"rew-eff","planning","17:09:08",0,88,5,4,0.75,0.95,0.2,0.75,1,0.95,7,3,1,7,2,"planning",64
"428","subREX_5","see raw data",1688269,"route 2",28,1713402,0.2,61,37,61,"baseline",9533,7,10000,3,0.95,13,1,138.262295081967,"rew-eff","planning","17:09:08",0,88,5,4,0.75,0.95,0.2,0.75,1,0.95,7,3,1,7,1,"planning",64
"429","subREX_5","see raw data",3009117,"route 2",32,3025483,0.95,35,38,35,"planning",4166,3,10000,6,0.55,61,1,153.314285714286,"rew-eff","planning","17:09:08",0,88,5,3,0.4,0.55,0.95,-0.4,0,0.95,3,6,0,6,2,"planning",64
"430","subREX_5","see raw data",1713402,"route 1",28,1788101,0.95,59,38,35,"baseline",40932,3,10000,6,0.55,61,0,157.627118644068,"rew-eff","planning","17:09:08",0,88,5,3,0.4,0.95,0.55,0.4,1,0.95,6,3,1,6,1,"planning",64
"431","subREX_5","see raw data",3025483,"route 1",36,3045682,0.35,23,39,61,"planning",9835,6,10000,4,0.95,22,1,153,"rew-eff","planning","17:09:08",0,88,5,2,0.6,0.35,0.95,-0.6,0,0.95,4,6,0,6,2,"planning",64
"432","subREX_5","see raw data",1788101,"route 1",32,1801500,0.35,22,39,61,"baseline",2566,6,10000,4,0.95,22,1,158.761904761905,"rew-eff","planning","17:09:08",0,88,5,2,0.6,0.35,0.95,-0.6,0,0.95,4,6,0,6,1,"planning",64
"433","subREX_5","see raw data",1801500,"route 2",36,1813766,0.75,13,40,13,"baseline",3467,4,10000,6,0.2,48,1,151.230769230769,"rew-eff","planning","17:09:08",0,88,5,2,0.55,0.2,0.75,-0.55,0,0.75,4,6,0,6,1,"planning",64
"434","subREX_5","see raw data",3045682,"route 1",42,3065816,0.75,49,40,13,"planning",6133,4,10000,6,0.2,48,1,147.9375,"rew-eff","planning","17:09:08",0,88,5,2,0.55,0.75,0.2,0.55,1,0.75,6,4,1,6,2,"planning",64
"435","subREX_5","see raw data",1813766,"route 1",40,1830667,0.75,48,41,61,"baseline",1899,6,10000,4,0.95,48,1,170.936170212766,"rew-eff","planning","17:09:08",0,88,5,2,0.2,0.75,0.95,-0.2,0,0.95,4,6,0,6,1,"planning",64
"436","subREX_5","see raw data",3065816,"route 1",46,3090982,0.75,49,41,61,"planning",10800,6,10000,4,0.95,48,1,155.755102040816,"rew-eff","planning","17:09:08",0,88,5,2,0.2,0.75,0.95,-0.2,0,0.95,4,6,0,6,2,"planning",64
"437","subREX_5","see raw data",3090982,"route 2",53,3105848,0.2,35,42,35,"planning",2466,7,10000,5,0.55,13,1,161.914285714286,"rew-eff","planning","17:09:08",0,88,5,2,0.35,0.55,0.2,0.35,1,0.55,7,5,1,7,2,"planning",64
"438","subREX_5","see raw data",1830667,"route 1",45,1842933,0.2,14,42,35,"baseline",3066,7,10000,5,0.55,13,1,174.384615384615,"rew-eff","planning","17:09:08",0,88,5,2,0.35,0.2,0.55,-0.35,0,0.55,5,7,0,7,1,"planning",64
"439","subREX_5","see raw data",1842933,"route 1",51,1855500,0.35,22,43,61,"baseline",1400,7,10000,6,0.95,22,1,195.454545454545,"rew-eff","planning","17:09:08",0,88,5,1,0.6,0.35,0.95,-0.6,0,0.95,6,7,0,7,1,"planning",64
"440","subREX_5","see raw data",3105848,"route 1",59,3118515,0.35,22,43,61,"planning",2267,7,10000,6,0.95,22,1,158.666666666667,"rew-eff","planning","17:09:08",0,88,5,1,0.6,0.35,0.95,-0.6,0,0.95,6,7,0,7,2,"planning",64
"441","subREX_6","see raw data",258046,"route 2",3,275678,0.95,21,0,20,"baseline",7074,3,10000,7,0.35,54,1,156,"rew-eff","planning","14:35:26",0,88,6,4,0.6,0.35,0.95,-0.6,0,0.95,3,7,0,7,1,"planning",57
"442","subREX_6","see raw data",0,"route 2",3,1215344,0.95,20,0,20,"planning",7775,3,10000,7,0.35,54,1,211.631578947368,"rew-eff","planning","14:35:26",0,88,6,4,0.6,0.35,0.95,-0.6,0,0.95,3,7,0,7,2,"planning",57
"443","subREX_6","see raw data",1215344,"route 1",10,1234783,0.95,54,1,43,"planning",5489,4,10000,7,0.75,54,1,131.62962962963,"rew-eff","planning","14:35:26",0,88,6,3,0.2,0.95,0.75,0.2,1,0.95,7,4,1,7,2,"planning",57
"444","subREX_6","see raw data",275678,"route 2",7,300188,0.95,43,1,43,"baseline",10562,4,10000,7,0.75,54,1,152.883720930233,"rew-eff","planning","14:35:26",0,88,6,3,0.2,0.75,0.95,-0.2,0,0.95,4,7,0,7,1,"planning",57
"445","subREX_6","see raw data",300188,"route 2",13,323680,0.2,31,2,31,"baseline",10912,6,10000,4,0.55,11,1,183.548387096774,"rew-eff","planning","14:35:26",0,88,6,2,0.35,0.55,0.2,0.35,1,0.55,6,4,1,6,1,"planning",57
"446","subREX_6","see raw data",1234783,"route 2",16,1249549,0.2,32,2,31,"planning",3003,6,10000,4,0.55,11,1,154.34375,"rew-eff","planning","14:35:26",0,88,6,2,0.35,0.55,0.2,0.35,1,0.55,6,4,1,6,2,"planning",57
"447","subREX_6","see raw data",1249549,"route 2",20,1262529,0.75,11,3,11,"planning",3837,4,10000,5,0.2,43,1,219.909090909091,"rew-eff","planning","14:35:26",0,88,6,1,0.55,0.2,0.75,-0.55,0,0.75,4,5,0,5,2,"planning",57
"448","subREX_6","see raw data",323680,"route 2",17,338613,0.75,12,3,11,"baseline",5790,4,10000,5,0.2,43,1,203.272727272727,"rew-eff","planning","14:35:26",0,88,6,1,0.55,0.2,0.75,-0.55,0,0.75,4,5,0,5,1,"planning",57
"449","subREX_6","see raw data",338613,"route 1",22,359303,0.75,43,4,54,"baseline",7341,7,10000,5,0.95,43,1,142.023255813953,"rew-eff","planning","14:35:26",0,88,6,2,0.2,0.75,0.95,-0.2,0,0.95,5,7,0,7,1,"planning",57
"450","subREX_6","see raw data",1262529,"route 2",27,1281851,0.75,55,4,54,"planning",4973,7,10000,5,0.95,43,1,141.981818181818,"rew-eff","planning","14:35:26",0,88,6,2,0.2,0.95,0.75,0.2,1,0.95,7,5,1,7,2,"planning",57
"451","subREX_6","see raw data",1281851,"route 2",30,1297802,0.95,31,5,31,"planning",4004,3,10000,6,0.55,54,1,164.161290322581,"rew-eff","planning","14:35:26",0,88,6,3,0.4,0.55,0.95,-0.4,0,0.95,3,6,0,6,2,"planning",57
"452","subREX_6","see raw data",359303,"route 2",25,377306,0.95,31,5,31,"baseline",5055,3,10000,6,0.55,54,1,199.666666666667,"rew-eff","planning","14:35:26",0,88,6,3,0.4,0.55,0.95,-0.4,0,0.95,3,6,0,6,1,"planning",57
"453","subREX_6","see raw data",377306,"route 2",31,397511,0.55,43,6,43,"baseline",7041,6,10000,4,0.75,31,1,146.674418604651,"rew-eff","planning","14:35:26",0,88,6,2,0.2,0.75,0.55,0.2,1,0.75,6,4,1,6,1,"planning",57
"454","subREX_6","see raw data",1297802,"route 2",36,1314638,0.55,43,6,43,"planning",3488,6,10000,4,0.75,31,1,152.883720930233,"rew-eff","planning","14:35:26",0,88,6,2,0.2,0.75,0.55,0.2,1,0.75,6,4,1,6,2,"planning",57
"455","subREX_6","see raw data",1314638,"route 2",42,1335026,0.2,55,7,54,"planning",6240,6,10000,3,0.95,11,1,139.018518518519,"rew-eff","planning","14:35:26",0,88,6,3,0.75,0.95,0.2,0.75,1,0.95,6,3,1,6,2,"planning",57
"456","subREX_6","see raw data",397511,"route 1",34,411293,0.2,11,7,54,"baseline",4855,6,10000,3,0.95,11,1,206.9,"rew-eff","planning","14:35:26",0,88,6,3,0.75,0.2,0.95,-0.75,0,0.95,3,6,0,6,1,"planning",57
"457","subREX_6","see raw data",411293,"route 2",39,426176,0.2,20,8,20,"baseline",3954,5,10000,4,0.35,11,1,206.368421052632,"rew-eff","planning","14:35:26",0,88,6,1,0.15,0.35,0.2,0.15,1,0.35,5,4,1,5,1,"planning",57
"458","subREX_6","see raw data",1335026,"route 2",47,1348341,0.2,20,8,20,"planning",2586,5,10000,4,0.35,11,1,200.25,"rew-eff","planning","14:35:26",0,88,6,1,0.15,0.35,0.2,0.15,1,0.35,5,4,1,5,2,"planning",57
"459","subREX_6","see raw data",1348341,"route 2",50,1366577,0.95,20,9,20,"planning",7108,3,10000,6,0.35,54,1,212.7,"rew-eff","planning","14:35:26",0,88,6,3,0.6,0.35,0.95,-0.6,0,0.95,3,6,0,6,2,"planning",57
"460","subREX_6","see raw data",426176,"route 2",42,441326,0.95,20,9,20,"baseline",4021,3,10000,6,0.35,54,1,218.684210526316,"rew-eff","planning","14:35:26",0,88,6,3,0.6,0.35,0.95,-0.6,0,0.95,3,6,0,6,1,"planning",57
