"","uid","choiceRT","trialEndTime","effortTimeLimit","trialEffortPropMax1","trialReward2","pressTimes","trialReward1","trialNo","trialEffortPropMax2","coinsRunningTotal","trialEffort2","trialSuccess","trialStartTime","condition","pressCount","choice","trialEffort1","meanPressLag","studyStartTime","nTrials","ID","deltaReward","deltaEffort","effortChosen","effortUnchosen","deltaEffortSigned","higherEffChosen","highEffortOption","rewardChosen","rewardUnchosen","higherRewChosen","highRewardOption","taskNo","group","maxPressCount"
"1","subRE2_1",2150,1209604,10000,0.95,3,"see raw data",7,0,0.35,7,22,1,0,"control",60,"route 1",60,143.254237288136,"11:30:00",88,1,4,0.6,0.95,0.35,0.6,1,0.95,7,3,1,7,2,"control",63
"2","subRE2_1",5667,323951,10000,0.95,3,"see raw data",7,0,0.35,7,22,1,303150,"baseline",60,"route 1",60,134.716666666667,"11:30:00",88,1,4,0.6,0.95,0.35,0.6,1,0.95,7,3,1,7,1,"control",63
"3","subRE2_1",3918,343421,10000,0.95,4,"see raw data",7,1,0.75,14,47,1,323951,"baseline",61,"route 1",60,143.35,"11:30:00",88,1,3,0.2,0.95,0.75,0.2,1,0.95,7,4,1,7,1,"control",63
"4","subRE2_1",1900,1227057,10000,0.95,4,"see raw data",7,1,0.75,14,47,1,1209604,"control",60,"route 1",60,144.084745762712,"11:30:00",88,1,3,0.2,0.95,0.75,0.2,1,0.95,7,4,1,7,2,"control",63
"5","subRE2_1",3016,358623,10000,0.2,6,"see raw data",4,2,0.55,20,35,1,343421,"baseline",35,"route 2",13,146.2,"11:30:00",88,1,2,0.35,0.55,0.2,0.35,1,0.55,6,4,1,6,1,"control",63
"6","subRE2_1",2317,1241543,10000,0.2,6,"see raw data",4,2,0.55,20,35,1,1227057,"control",36,"route 2",13,145.861111111111,"11:30:00",88,1,2,0.35,0.55,0.2,0.35,1,0.55,6,4,1,6,2,"control",63
"7","subRE2_1",2167,1257878,10000,0.75,4,"see raw data",5,3,0.2,25,13,1,1241543,"control",48,"route 1",47,150.723404255319,"11:30:00",88,1,1,0.55,0.75,0.2,0.55,1,0.75,5,4,1,5,2,"control",63
"8","subRE2_1",4401,376775,10000,0.75,4,"see raw data",5,3,0.2,25,13,1,358623,"baseline",48,"route 1",47,141.872340425532,"11:30:00",88,1,1,0.55,0.75,0.2,0.55,1,0.75,5,4,1,5,1,"control",63
"9","subRE2_1",1917,1275548,10000,0.75,7,"see raw data",5,4,0.95,32,60,1,1257878,"control",61,"route 2",47,146.966666666667,"11:30:00",88,1,2,0.2,0.95,0.75,0.2,1,0.95,7,5,1,7,2,"control",63
"10","subRE2_1",2517,394846,10000,0.75,7,"see raw data",5,4,0.95,32,60,1,376775,"baseline",60,"route 2",47,140.283333333333,"11:30:00",88,1,2,0.2,0.95,0.75,0.2,1,0.95,7,5,1,7,1,"control",63
"11","subRE2_1",2701,413315,10000,0.95,3,"see raw data",6,5,0.55,38,35,1,394846,"baseline",61,"route 1",60,144.55737704918,"11:30:00",88,1,3,0.4,0.95,0.55,0.4,1,0.95,6,3,1,6,1,"control",63
"12","subRE2_1",1584,1292884,10000,0.95,3,"see raw data",6,5,0.55,38,35,1,1275548,"control",60,"route 1",60,147.516666666667,"11:30:00",88,1,3,0.4,0.95,0.55,0.4,1,0.95,6,3,1,6,2,"control",63
"13","subRE2_1",3183,430435,10000,0.55,6,"see raw data",4,6,0.75,44,47,1,413315,"baseline",48,"route 2",35,147.893617021277,"11:30:00",88,1,2,0.2,0.75,0.55,0.2,1,0.75,6,4,1,6,1,"control",63
"14","subRE2_1",1650,1308470,10000,0.55,6,"see raw data",4,6,0.75,44,47,1,1292884,"control",48,"route 2",35,148.957446808511,"11:30:00",88,1,2,0.2,0.75,0.55,0.2,1,0.75,6,4,1,6,2,"control",63
"15","subRE2_1",2650,448605,10000,0.2,6,"see raw data",3,7,0.95,50,60,1,430435,"baseline",60,"route 2",13,143.508474576271,"11:30:00",88,1,3,0.75,0.95,0.2,0.75,1,0.95,6,3,1,6,1,"control",63
"16","subRE2_1",1667,1326306,10000,0.2,6,"see raw data",3,7,0.95,50,60,1,1308470,"control",61,"route 2",13,153.295081967213,"11:30:00",88,1,3,0.75,0.95,0.2,0.75,1,0.95,6,3,1,6,2,"control",63
"17","subRE2_1",1867,1338724,10000,0.2,5,"see raw data",4,8,0.35,55,22,1,1326306,"control",23,"route 2",13,160.636363636364,"11:30:00",88,1,1,0.15,0.35,0.2,0.15,1,0.35,5,4,1,5,2,"control",63
"18","subRE2_1",2900,461856,10000,0.2,5,"see raw data",4,8,0.35,55,22,1,448605,"baseline",22,"route 2",13,153.045454545455,"11:30:00",88,1,1,0.15,0.35,0.2,0.15,1,0.35,5,4,1,5,1,"control",63
"19","subRE2_1",2467,479725,10000,0.95,3,"see raw data",6,9,0.35,61,22,1,461856,"baseline",60,"route 1",60,140.283333333333,"11:30:00",88,1,3,0.6,0.95,0.35,0.6,1,0.95,6,3,1,6,1,"control",63
"20","subRE2_1",1950,1356627,10000,0.95,3,"see raw data",6,9,0.35,61,22,1,1338724,"control",60,"route 1",60,149.816666666667,"11:30:00",88,1,3,0.6,0.95,0.35,0.6,1,0.95,6,3,1,6,2,"control",63
"21","subRE2_1",2117,1369696,10000,0.35,3,"see raw data",4,10,0.2,65,13,1,1356627,"control",23,"route 1",22,178.260869565217,"11:30:00",88,1,1,0.15,0.35,0.2,0.15,1,0.35,4,3,1,4,2,"control",63
"22","subRE2_1",2367,492644,10000,0.35,3,"see raw data",4,10,0.2,65,13,1,479725,"baseline",23,"route 1",22,160.636363636364,"11:30:00",88,1,1,0.15,0.35,0.2,0.15,1,0.35,4,3,1,4,1,"control",63
"23","subRE2_1",2367,536567,10000,0.55,7,"see raw data",5,11,0.75,7,47,1,520264,"baseline",48,"route 2",35,146.468085106383,"11:30:00",88,1,2,0.2,0.75,0.55,0.2,1,0.75,7,5,1,7,1,"control",63
"24","subRE2_1",11852,1428671,10000,0.55,7,"see raw data",5,11,0.75,7,47,1,1402251,"control",48,"route 2",35,158.531914893617,"11:30:00",88,1,2,0.2,0.75,0.55,0.2,1,0.75,7,5,1,7,2,"control",63
"25","subRE2_1",2200,552753,10000,0.2,6,"see raw data",4,12,0.75,13,47,1,536567,"baseline",48,"route 2",13,147.893617021277,"11:30:00",88,1,2,0.55,0.75,0.2,0.55,1,0.75,6,4,1,6,1,"control",63
"26","subRE2_1",1733,1444541,10000,0.2,6,"see raw data",4,12,0.75,13,47,1,1428671,"control",48,"route 2",13,152.148936170213,"11:30:00",88,1,2,0.55,0.75,0.2,0.55,1,0.75,6,4,1,6,2,"control",63
"27","subRE2_1",2301,570589,10000,0.35,5,"see raw data",3,13,0.95,18,60,1,552753,"baseline",61,"route 2",22,141.966666666667,"11:30:00",88,1,2,0.6,0.95,0.35,0.6,1,0.95,5,3,1,5,1,"control",63
"28","subRE2_1",1634,1461910,10000,0.35,5,"see raw data",3,13,0.95,18,60,1,1444541,"control",60,"route 2",22,147.533333333333,"11:30:00",88,1,2,0.6,0.95,0.35,0.6,1,0.95,5,3,1,5,2,"control",63
"29","subRE2_1",1867,1472928,10000,0.95,8,"see raw data",1,14,0.2,26,13,1,1461910,"control",13,"route 2",60,159,"11:30:00",88,1,7,0.75,0.2,0.95,-0.75,0,0.95,8,1,1,8,2,"control",63
"30","subRE2_1",3750,583508,10000,0.95,8,"see raw data",1,14,0.2,26,13,1,570589,"baseline",14,"route 2",60,155.928571428571,"11:30:00",88,1,7,0.75,0.2,0.95,-0.75,0,0.95,8,1,1,8,1,"control",63
"31","subRE2_1",1950,1488865,10000,0.75,3,"see raw data",4,15,0.35,30,22,1,1472928,"control",48,"route 1",47,147.170212765957,"11:30:00",88,1,1,0.4,0.75,0.35,0.4,1,0.75,4,3,1,4,2,"control",63
"32","subRE2_1",1933,599610,10000,0.75,3,"see raw data",4,15,0.35,30,22,1,583508,"baseline",48,"route 1",47,147.191489361702,"11:30:00",88,1,1,0.4,0.75,0.35,0.4,1,0.75,4,3,1,4,1,"control",63
"33","subRE2_1",1650,1503066,10000,0.55,5,"see raw data",6,16,0.2,36,13,1,1488865,"control",35,"route 1",35,158.571428571429,"11:30:00",88,1,1,0.35,0.55,0.2,0.35,1,0.55,6,5,1,6,2,"control",63
"34","subRE2_1",2017,614196,10000,0.55,5,"see raw data",6,16,0.2,36,13,1,599610,"baseline",35,"route 1",35,159.542857142857,"11:30:00",88,1,1,0.35,0.55,0.2,0.35,1,0.55,6,5,1,6,1,"control",63
"35","subRE2_1",2167,631698,10000,0.95,3,"see raw data",5,17,0.2,41,13,1,614196,"baseline",60,"route 1",60,140.85,"11:30:00",88,1,2,0.75,0.95,0.2,0.75,1,0.95,5,3,1,5,1,"control",63
"36","subRE2_1",1917,1521269,10000,0.95,3,"see raw data",5,17,0.2,41,13,1,1503066,"control",60,"route 1",60,158.9,"11:30:00",88,1,2,0.75,0.95,0.2,0.75,1,0.95,5,3,1,5,2,"control",63
"37","subRE2_1",1734,1538739,10000,0.95,4,"see raw data",5,18,0.35,46,22,1,1521269,"control",60,"route 1",60,147.8,"11:30:00",88,1,1,0.6,0.95,0.35,0.6,1,0.95,5,4,1,5,2,"control",63
"38","subRE2_1",1817,648901,10000,0.95,4,"see raw data",5,18,0.35,46,22,1,631698,"baseline",61,"route 1",60,137.72131147541,"11:30:00",88,1,1,0.6,0.95,0.35,0.6,1,0.95,5,4,1,5,1,"control",63
"39","subRE2_1",1851,1556575,10000,0.95,3,"see raw data",5,19,0.2,51,13,1,1538739,"control",61,"route 1",60,148.934426229508,"11:30:00",88,1,2,0.75,0.95,0.2,0.75,1,0.95,5,3,1,5,2,"control",63
"40","subRE2_1",2317,666604,10000,0.95,3,"see raw data",5,19,0.2,51,13,1,648901,"baseline",61,"route 1",60,138,"11:30:00",88,1,2,0.75,0.95,0.2,0.75,1,0.95,5,3,1,5,1,"control",63
"41","subRE2_1",1684,684040,10000,0.95,4,"see raw data",7,20,0.55,58,35,1,666604,"baseline",60,"route 1",60,147.8,"11:30:00",88,1,3,0.4,0.95,0.55,0.4,1,0.95,7,4,1,7,1,"control",63
"42","subRE2_1",1900,1574661,10000,0.95,4,"see raw data",7,20,0.55,58,35,1,1556575,"control",60,"route 1",60,153.083333333333,"11:30:00",88,1,3,0.4,0.95,0.55,0.4,1,0.95,7,4,1,7,2,"control",63
"43","subRE2_1",1751,1590764,10000,0.75,6,"see raw data",7,21,0.2,65,13,1,1574661,"control",48,"route 1",47,156.765957446808,"11:30:00",88,1,1,0.55,0.75,0.2,0.55,1,0.75,7,6,1,7,2,"control",63
"44","subRE2_1",1934,700526,10000,0.75,6,"see raw data",7,21,0.2,65,13,1,684040,"baseline",48,"route 1",47,161.36170212766,"11:30:00",88,1,1,0.55,0.75,0.2,0.55,1,0.75,7,6,1,7,1,"control",63
"45","subRE2_1",2550,733931,10000,0.95,3,"see raw data",4,22,0.55,4,35,1,716211,"baseline",60,"route 1",60,138.066666666667,"11:30:00",88,1,1,0.4,0.95,0.55,0.4,1,0.95,4,3,1,4,1,"control",63
"46","subRE2_1",6968,1636204,10000,0.95,3,"see raw data",4,22,0.55,4,35,1,1613483,"control",60,"route 1",60,148.050847457627,"11:30:00",88,1,1,0.4,0.95,0.55,0.4,1,0.95,4,3,1,4,2,"control",63
"47","subRE2_1",1984,751500,10000,0.2,6,"see raw data",4,23,0.95,10,60,1,733931,"baseline",60,"route 2",13,140.3,"11:30:00",88,1,2,0.75,0.95,0.2,0.75,1,0.95,6,4,1,6,1,"control",63
"48","subRE2_1",2267,1654640,10000,0.2,6,"see raw data",4,23,0.95,10,60,1,1636204,"control",61,"route 2",13,150.295081967213,"11:30:00",88,1,2,0.75,0.95,0.2,0.75,1,0.95,6,4,1,6,2,"control",63
"49","subRE2_1",1917,1668926,10000,0.35,7,"see raw data",3,24,0.55,17,35,1,1654640,"control",36,"route 2",22,150.028571428571,"11:30:00",88,1,4,0.2,0.55,0.35,0.2,1,0.55,7,3,1,7,2,"control",63
"50","subRE2_1",2017,765869,10000,0.35,7,"see raw data",3,24,0.55,17,35,1,751500,"baseline",36,"route 2",22,154.314285714286,"11:30:00",88,1,4,0.2,0.55,0.35,0.2,1,0.55,7,3,1,7,1,"control",63
"51","subRE2_1",2134,778554,10000,0.35,6,"see raw data",7,25,0.2,24,13,1,765869,"baseline",23,"route 1",22,161.608695652174,"11:30:00",88,1,1,0.15,0.35,0.2,0.15,1,0.35,7,6,1,7,1,"control",63
"52","subRE2_1",2083,1681360,10000,0.35,6,"see raw data",7,25,0.2,24,13,1,1668926,"control",22,"route 1",22,157.190476190476,"11:30:00",88,1,1,0.15,0.35,0.2,0.15,1,0.35,7,6,1,7,2,"control",63
"53","subRE2_1",1767,1697663,10000,0.2,6,"see raw data",4,26,0.75,30,47,1,1681360,"control",48,"route 2",13,161.744680851064,"11:30:00",88,1,2,0.55,0.75,0.2,0.55,1,0.75,6,4,1,6,2,"control",63
"54","subRE2_1",1900,794607,10000,0.2,6,"see raw data",4,26,0.75,30,47,1,778554,"baseline",47,"route 2",13,153.68085106383,"11:30:00",88,1,2,0.55,0.75,0.2,0.55,1,0.75,6,4,1,6,1,"control",63
"55","subRE2_1",2334,805942,10000,0.2,1,"see raw data",8,27,0.95,38,60,1,794607,"baseline",14,"route 1",13,152.538461538462,"11:30:00",88,1,7,0.75,0.2,0.95,-0.75,0,0.95,8,1,1,8,1,"control",63
"56","subRE2_1",1934,1708948,10000,0.2,1,"see raw data",8,27,0.95,38,60,1,1697663,"control",13,"route 1",13,149.923076923077,"11:30:00",88,1,7,0.75,0.2,0.95,-0.75,0,0.95,8,1,1,8,2,"control",63
"57","subRE2_1",1917,822411,10000,0.75,6,"see raw data",7,28,0.35,45,22,1,805942,"baseline",48,"route 1",47,158.893617021277,"11:30:00",88,1,1,0.4,0.75,0.35,0.4,1,0.75,7,6,1,7,1,"control",63
"58","subRE2_1",2100,1725417,10000,0.75,6,"see raw data",7,28,0.35,45,22,1,1708948,"control",47,"route 1",47,159.212765957447,"11:30:00",88,1,1,0.4,0.75,0.35,0.4,1,0.75,7,6,1,7,2,"control",63
"59","subRE2_1",1900,840481,10000,0.35,4,"see raw data",3,29,0.95,49,60,1,822411,"baseline",60,"route 2",22,138.083333333333,"11:30:00",88,1,1,0.6,0.95,0.35,0.6,1,0.95,4,3,1,4,1,"control",63
"60","subRE2_1",1951,1743320,10000,0.35,4,"see raw data",3,29,0.95,49,60,1,1725417,"control",60,"route 2",22,150.266666666667,"11:30:00",88,1,1,0.6,0.95,0.35,0.6,1,0.95,4,3,1,4,2,"control",63
"61","subRE2_1",1684,1755189,10000,0.35,5,"see raw data",6,30,0.2,55,13,1,1743320,"control",22,"route 1",22,152.380952380952,"11:30:00",88,1,1,0.15,0.35,0.2,0.15,1,0.35,6,5,1,6,2,"control",63
"62","subRE2_1",1717,852766,10000,0.35,5,"see raw data",6,30,0.2,55,13,1,840481,"baseline",22,"route 1",22,165.954545454545,"11:30:00",88,1,1,0.15,0.35,0.2,0.15,1,0.35,6,5,1,6,1,"control",63
"63","subRE2_1",1934,867035,10000,0.2,5,"see raw data",3,31,0.55,60,35,1,852766,"baseline",35,"route 2",13,153.828571428571,"11:30:00",88,1,2,0.35,0.55,0.2,0.35,1,0.55,5,3,1,5,1,"control",63
"64","subRE2_1",1750,1769091,10000,0.2,5,"see raw data",3,31,0.55,60,35,1,1755189,"control",36,"route 2",13,148.571428571429,"11:30:00",88,1,2,0.35,0.55,0.2,0.35,1,0.55,5,3,1,5,2,"control",63
"65","subRE2_1",1567,1786594,10000,0.95,3,"see raw data",7,32,0.2,67,13,1,1769091,"control",60,"route 1",60,151.416666666667,"11:30:00",88,1,4,0.75,0.95,0.2,0.75,1,0.95,7,3,1,7,2,"control",63
"66","subRE2_1",1867,884454,10000,0.95,3,"see raw data",7,32,0.2,67,13,1,867035,"baseline",60,"route 1",60,143.525423728814,"11:30:00",88,1,4,0.75,0.95,0.2,0.75,1,0.95,7,3,1,7,1,"control",63
"67","subRE2_1",2850,915442,10000,0.2,7,"see raw data",6,33,0.75,7,47,1,898623,"baseline",48,"route 2",13,144.125,"11:30:00",88,1,1,0.55,0.75,0.2,0.55,1,0.75,7,6,1,7,1,"control",63
"68","subRE2_1",1884,1826683,10000,0.2,7,"see raw data",6,33,0.75,7,47,1,1810598,"control",48,"route 2",13,150.375,"11:30:00",88,1,1,0.55,0.75,0.2,0.55,1,0.75,7,6,1,7,2,"control",63
"69","subRE2_1",2100,1841535,10000,0.35,5,"see raw data",4,34,0.55,12,35,1,1826683,"control",35,"route 2",22,161.457142857143,"11:30:00",88,1,1,0.2,0.55,0.35,0.2,1,0.55,5,4,1,5,2,"control",63
"70","subRE2_1",2183,930378,10000,0.35,5,"see raw data",4,34,0.55,12,35,1,915442,"baseline",36,"route 2",22,162.4,"11:30:00",88,1,1,0.2,0.55,0.35,0.2,1,0.55,5,4,1,5,1,"control",63
"71","subRE2_1",2117,1859788,10000,0.55,5,"see raw data",4,35,0.95,17,60,1,1841535,"control",60,"route 2",35,152.766666666667,"11:30:00",88,1,1,0.4,0.95,0.55,0.4,1,0.95,5,4,1,5,2,"control",63
"72","subRE2_1",2633,948580,10000,0.55,5,"see raw data",4,35,0.95,17,60,1,930378,"baseline",61,"route 2",35,140.688524590164,"11:30:00",88,1,1,0.4,0.95,0.55,0.4,1,0.95,5,4,1,5,1,"control",63
"73","subRE2_1",6217,967751,10000,0.55,4,"see raw data",7,36,0.35,24,22,1,948580,"baseline",36,"route 1",35,164.771428571429,"11:30:00",88,1,3,0.2,0.55,0.35,0.2,1,0.55,7,4,1,7,1,"control",63
"74","subRE2_1",1917,1874074,10000,0.55,4,"see raw data",7,36,0.35,24,22,1,1859788,"control",35,"route 1",35,158.114285714286,"11:30:00",88,1,3,0.2,0.55,0.35,0.2,1,0.55,7,4,1,7,2,"control",63
"75","subRE2_1",1984,985486,10000,0.2,7,"see raw data",3,37,0.95,31,60,1,967751,"baseline",61,"route 2",13,146.15,"11:30:00",88,1,4,0.75,0.95,0.2,0.75,1,0.95,7,3,1,7,1,"control",63
"76","subRE2_1",4167,1899794,10000,0.2,7,"see raw data",3,37,0.95,24,60,0,1874074,"control",59,"route 2",13,157.898305084746,"11:30:00",88,1,4,0.75,0.95,0.2,0.75,1,0.95,7,3,1,7,2,"control",63
"77","subRE2_1",1900,1917431,10000,0.95,3,"see raw data",6,38,0.55,30,35,1,1899794,"control",60,"route 1",60,146.067796610169,"11:30:00",88,1,3,0.4,0.95,0.55,0.4,1,0.95,6,3,1,6,2,"control",63
"78","subRE2_1",1984,1003423,10000,0.95,3,"see raw data",6,38,0.55,37,35,1,985486,"baseline",61,"route 1",60,148.114754098361,"11:30:00",88,1,3,0.4,0.95,0.55,0.4,1,0.95,6,3,1,6,1,"control",63
"79","subRE2_1",7334,1026309,10000,0.35,6,"see raw data",4,39,0.95,43,60,1,1003423,"baseline",60,"route 2",22,142.101694915254,"11:30:00",88,1,2,0.6,0.95,0.35,0.6,1,0.95,6,4,1,6,1,"control",63
"80","subRE2_1",4267,1937650,10000,0.35,6,"see raw data",4,39,0.95,36,60,1,1917431,"control",60,"route 2",22,150.881355932203,"11:30:00",88,1,2,0.6,0.95,0.35,0.6,1,0.95,6,4,1,6,2,"control",63
"81","subRE2_1",2334,1042996,10000,0.75,4,"see raw data",6,40,0.2,49,13,1,1026309,"baseline",48,"route 1",47,154.541666666667,"11:30:00",88,1,2,0.55,0.75,0.2,0.55,1,0.75,6,4,1,6,1,"control",63
"82","subRE2_1",2650,1954853,10000,0.75,4,"see raw data",6,40,0.2,42,13,1,1937650,"control",47,"route 1",47,161.723404255319,"11:30:00",88,1,2,0.55,0.75,0.2,0.55,1,0.75,6,4,1,6,2,"control",63
"83","subRE2_1",2450,1973272,10000,0.75,6,"see raw data",4,41,0.95,48,60,1,1954853,"control",60,"route 2",47,151.133333333333,"11:30:00",88,1,2,0.2,0.95,0.75,0.2,1,0.95,6,4,1,6,2,"control",63
"84","subRE2_1",3534,1062498,10000,0.75,6,"see raw data",4,41,0.95,55,60,1,1042996,"baseline",60,"route 2",47,149.728813559322,"11:30:00",88,1,2,0.2,0.95,0.75,0.2,1,0.95,6,4,1,6,1,"control",63
"85","subRE2_1",1534,1986958,10000,0.2,7,"see raw data",5,42,0.55,55,35,1,1973272,"control",36,"route 2",13,147.628571428571,"11:30:00",88,1,2,0.35,0.55,0.2,0.35,1,0.55,7,5,1,7,2,"control",63
"86","subRE2_1",2067,1076934,10000,0.2,7,"see raw data",5,42,0.55,62,35,1,1062498,"baseline",36,"route 2",13,151.428571428571,"11:30:00",88,1,2,0.35,0.55,0.2,0.35,1,0.55,7,5,1,7,1,"control",63
"87","subRE2_1",1934,1094236,10000,0.35,7,"see raw data",6,43,0.95,69,60,1,1076934,"baseline",60,"route 2",22,141.416666666667,"11:30:00",88,1,1,0.6,0.95,0.35,0.6,1,0.95,7,6,1,7,1,"control",63
"88","subRE2_1",1550,2004244,10000,0.35,7,"see raw data",6,43,0.95,62,60,1,1986958,"control",60,"route 2",22,147.233333333333,"11:30:00",88,1,1,0.6,0.95,0.35,0.6,1,0.95,7,6,1,7,2,"control",63
"89","subRE2_2",6844,217489,10000,0.95,3,"see raw data",7,0,0.35,7,24,1,196672,"baseline",67,"route 1",65,90.7164179104478,"03:06:23",88,2,4,0.6,0.95,0.35,0.6,1,0.95,7,3,1,7,1,"control",68
"90","subRE2_2",2448,1104627,10000,0.95,3,"see raw data",7,0,0.35,7,24,1,0,"control",66,"route 1",65,101.681818181818,"03:06:23",88,2,4,0.6,0.95,0.35,0.6,1,0.95,7,3,1,7,2,"control",68
"91","subRE2_2",2065,1120481,10000,0.95,4,"see raw data",7,1,0.75,14,51,1,1104627,"control",65,"route 1",65,100.384615384615,"03:06:23",88,2,3,0.2,0.95,0.75,0.2,1,0.95,7,4,1,7,2,"control",68
"92","subRE2_2",4296,234741,10000,0.95,4,"see raw data",7,1,0.75,11,51,1,217489,"baseline",51,"route 2",65,113.627450980392,"03:06:23",88,2,3,0.2,0.75,0.95,-0.2,0,0.95,4,7,0,7,1,"control",68
"93","subRE2_2",1682,1133539,10000,0.2,6,"see raw data",4,2,0.55,20,37,1,1120481,"control",38,"route 2",14,109.631578947368,"03:06:23",88,2,2,0.35,0.55,0.2,0.35,1,0.55,6,4,1,6,2,"control",68
"94","subRE2_2",2615,250911,10000,0.2,6,"see raw data",4,2,0.55,17,37,1,234741,"baseline",38,"route 2",14,169.162162162162,"03:06:23",88,2,2,0.35,0.55,0.2,0.35,1,0.55,6,4,1,6,1,"control",68
"95","subRE2_2",1998,1148092,10000,0.75,4,"see raw data",5,3,0.2,25,14,1,1133539,"control",52,"route 1",51,106,"03:06:23",88,2,1,0.55,0.75,0.2,0.55,1,0.75,5,4,1,5,2,"control",68
"96","subRE2_2",8110,272194,10000,0.75,4,"see raw data",5,3,0.2,22,14,1,250911,"baseline",52,"route 1",51,105.634615384615,"03:06:23",88,2,1,0.55,0.75,0.2,0.55,1,0.75,5,4,1,5,1,"control",68
"97","subRE2_2",2581,1163662,10000,0.75,7,"see raw data",5,4,0.95,32,65,1,1148092,"control",66,"route 2",51,85.8307692307692,"03:06:23",88,2,2,0.2,0.95,0.75,0.2,1,0.95,7,5,1,7,2,"control",68
"98","subRE2_2",16853,310662,10000,0.75,7,"see raw data",5,4,0.95,22,65,0,272194,"baseline",47,"route 2",51,184.255319148936,"03:06:23",88,2,2,0.2,0.95,0.75,0.2,1,0.95,7,5,1,7,1,"control",68
"99","subRE2_2",1915,1179349,10000,0.95,3,"see raw data",6,5,0.55,38,37,1,1163662,"control",66,"route 1",65,99.4,"03:06:23",88,2,3,0.4,0.95,0.55,0.4,1,0.95,6,3,1,6,2,"control",68
"100","subRE2_2",5429,330480,10000,0.95,3,"see raw data",6,5,0.55,28,37,1,310662,"baseline",66,"route 1",65,107.742424242424,"03:06:23",88,2,3,0.4,0.95,0.55,0.4,1,0.95,6,3,1,6,1,"control",68
"101","subRE2_2",4096,348148,10000,0.55,6,"see raw data",4,6,0.75,34,51,1,330480,"baseline",52,"route 2",37,119.901960784314,"03:06:23",88,2,2,0.2,0.75,0.55,0.2,1,0.75,6,4,1,6,1,"control",68
"102","subRE2_2",1462,1193738,10000,0.55,6,"see raw data",4,6,0.75,44,51,1,1179349,"control",53,"route 2",37,107.538461538462,"03:06:23",88,2,2,0.2,0.75,0.55,0.2,1,0.75,6,4,1,6,2,"control",68
"103","subRE2_2",3997,367133,10000,0.2,6,"see raw data",3,7,0.95,40,65,1,348148,"baseline",66,"route 2",14,118.615384615385,"03:06:23",88,2,3,0.75,0.95,0.2,0.75,1,0.95,6,3,1,6,1,"control",68
"104","subRE2_2",2064,1209774,10000,0.2,6,"see raw data",3,7,0.95,50,65,1,1193738,"control",67,"route 2",14,93.1060606060606,"03:06:23",88,2,3,0.75,0.95,0.2,0.75,1,0.95,6,3,1,6,2,"control",68
"105","subRE2_2",13172,391479,10000,0.2,5,"see raw data",4,8,0.35,45,24,1,367133,"baseline",24,"route 2",14,152.608695652174,"03:06:23",88,2,1,0.15,0.35,0.2,0.15,1,0.35,5,4,1,5,1,"control",68
"106","subRE2_2",1732,1220865,10000,0.2,5,"see raw data",4,8,0.35,55,24,1,1209774,"control",25,"route 2",14,96.4166666666667,"03:06:23",88,2,1,0.15,0.35,0.2,0.15,1,0.35,5,4,1,5,2,"control",68
"107","subRE2_2",2698,407749,10000,0.95,3,"see raw data",6,9,0.35,51,24,1,391479,"baseline",66,"route 1",65,90.6615384615385,"03:06:23",88,2,3,0.6,0.95,0.35,0.6,1,0.95,6,3,1,6,1,"control",68
"108","subRE2_2",1615,1236086,10000,0.95,3,"see raw data",6,9,0.35,61,24,1,1220865,"control",66,"route 1",65,98.6515151515152,"03:06:23",88,2,3,0.6,0.95,0.35,0.6,1,0.95,6,3,1,6,2,"control",68
"109","subRE2_2",2015,1247643,10000,0.35,3,"see raw data",4,10,0.2,65,14,1,1236086,"control",25,"route 1",24,96.5416666666667,"03:06:23",88,2,1,0.15,0.35,0.2,0.15,1,0.35,4,3,1,4,2,"control",68
"110","subRE2_2",3014,420739,10000,0.35,3,"see raw data",4,10,0.2,55,14,1,407749,"baseline",26,"route 1",24,94.56,"03:06:23",88,2,1,0.15,0.35,0.2,0.15,1,0.35,4,3,1,4,1,"control",68
"111","subRE2_2",2095,1288144,10000,0.55,7,"see raw data",5,11,0.75,7,51,1,1273472,"control",52,"route 2",37,102.480769230769,"03:06:23",88,2,2,0.2,0.75,0.55,0.2,1,0.75,7,5,1,7,2,"control",68
"112","subRE2_2",2864,470997,10000,0.55,7,"see raw data",5,11,0.75,7,51,1,455526,"baseline",51,"route 2",37,99.92,"03:06:23",88,2,2,0.2,0.75,0.55,0.2,1,0.75,7,5,1,7,1,"control",68
"113","subRE2_2",2481,485652,10000,0.2,6,"see raw data",4,12,0.75,13,51,1,470997,"baseline",52,"route 2",14,92.4117647058823,"03:06:23",88,2,2,0.55,0.75,0.2,0.55,1,0.75,6,4,1,6,1,"control",68
"114","subRE2_2",1665,1302381,10000,0.2,6,"see raw data",4,12,0.75,13,51,1,1288144,"control",52,"route 2",14,104.823529411765,"03:06:23",88,2,2,0.55,0.75,0.2,0.55,1,0.75,6,4,1,6,2,"control",68
"115","subRE2_2",3547,502388,10000,0.35,5,"see raw data",3,13,0.95,18,65,1,485652,"baseline",67,"route 2",24,86.030303030303,"03:06:23",88,2,2,0.6,0.95,0.35,0.6,1,0.95,5,3,1,5,1,"control",68
"116","subRE2_2",1733,1316853,10000,0.35,5,"see raw data",3,13,0.95,18,65,1,1302381,"control",65,"route 2",24,82.234375,"03:06:23",88,2,2,0.6,0.95,0.35,0.6,1,0.95,5,3,1,5,2,"control",68
"117","subRE2_2",2315,1328727,10000,0.95,8,"see raw data",1,14,0.2,26,14,1,1316853,"control",14,"route 2",65,193.384615384615,"03:06:23",88,2,7,0.75,0.2,0.95,-0.75,0,0.95,8,1,1,8,2,"control",68
"118","subRE2_2",5729,518892,10000,0.95,8,"see raw data",1,14,0.2,26,14,1,502388,"baseline",14,"route 2",65,164.214285714286,"03:06:23",88,2,7,0.75,0.2,0.95,-0.75,0,0.95,8,1,1,8,1,"control",68
"119","subRE2_2",2015,1343098,10000,0.75,3,"see raw data",4,15,0.35,30,24,1,1328727,"control",51,"route 1",51,102.843137254902,"03:06:23",88,2,1,0.4,0.75,0.35,0.4,1,0.75,4,3,1,4,2,"control",68
"120","subRE2_2",2448,534529,10000,0.75,3,"see raw data",4,15,0.35,30,24,1,518892,"baseline",51,"route 1",51,113.647058823529,"03:06:23",88,2,1,0.4,0.75,0.35,0.4,1,0.75,4,3,1,4,1,"control",68
"121","subRE2_2",2248,549933,10000,0.55,5,"see raw data",6,16,0.2,36,14,1,534529,"baseline",38,"route 1",37,157.315789473684,"03:06:23",88,2,1,0.35,0.55,0.2,0.35,1,0.55,6,5,1,6,1,"control",68
"122","subRE2_2",1999,1356238,10000,0.55,5,"see raw data",6,16,0.2,36,14,1,1343098,"control",38,"route 1",37,105.756756756757,"03:06:23",88,2,1,0.35,0.55,0.2,0.35,1,0.55,6,5,1,6,2,"control",68
"123","subRE2_2",1831,1370409,10000,0.95,3,"see raw data",5,17,0.2,41,14,1,1356238,"control",66,"route 1",65,75.4393939393939,"03:06:23",88,2,2,0.75,0.95,0.2,0.75,1,0.95,5,3,1,5,2,"control",68
"124","subRE2_2",2215,565903,10000,0.95,3,"see raw data",5,17,0.2,41,14,1,549933,"baseline",67,"route 1",65,95.6212121212121,"03:06:23",88,2,2,0.75,0.95,0.2,0.75,1,0.95,5,3,1,5,1,"control",68
"125","subRE2_2",1865,1384265,10000,0.95,4,"see raw data",5,18,0.35,46,24,1,1370409,"control",66,"route 1",65,69.3432835820896,"03:06:23",88,2,1,0.6,0.95,0.35,0.6,1,0.95,5,4,1,5,2,"control",68
"126","subRE2_2",2498,583155,10000,0.95,4,"see raw data",5,18,0.35,46,24,1,565903,"baseline",65,"route 1",65,115.265625,"03:06:23",88,2,1,0.6,0.95,0.35,0.6,1,0.95,5,4,1,5,1,"control",68
"127","subRE2_2",2381,598309,10000,0.95,3,"see raw data",5,19,0.2,51,14,1,583155,"baseline",68,"route 1",65,80.5735294117647,"03:06:23",88,2,2,0.75,0.95,0.2,0.75,1,0.95,5,3,1,5,1,"control",68
"128","subRE2_2",1782,1399435,10000,0.95,3,"see raw data",5,19,0.2,51,14,1,1384265,"control",65,"route 1",65,94.8,"03:06:23",88,2,2,0.75,0.95,0.2,0.75,1,0.95,5,3,1,5,2,"control",68
"129","subRE2_2",2098,1413258,10000,0.95,4,"see raw data",7,20,0.55,58,37,1,1399435,"control",65,"route 1",65,67.640625,"03:06:23",88,2,3,0.4,0.95,0.55,0.4,1,0.95,7,4,1,7,2,"control",68
"130","subRE2_2",2215,611898,10000,0.95,4,"see raw data",7,20,0.55,58,37,1,598309,"baseline",66,"route 1",65,62.0454545454545,"03:06:23",88,2,3,0.4,0.95,0.55,0.4,1,0.95,7,4,1,7,1,"control",68
"131","subRE2_2",2098,624555,10000,0.75,6,"see raw data",7,21,0.2,65,14,1,611898,"baseline",51,"route 1",51,60.3,"03:06:23",88,2,1,0.55,0.75,0.2,0.55,1,0.75,7,6,1,7,1,"control",68
"132","subRE2_2",1881,1427779,10000,0.75,6,"see raw data",7,21,0.2,65,14,1,1413258,"control",53,"route 1",51,102.153846153846,"03:06:23",88,2,1,0.55,0.75,0.2,0.55,1,0.75,7,6,1,7,2,"control",68
"133","subRE2_2",5346,1462817,10000,0.95,3,"see raw data",4,22,0.55,4,37,1,1443282,"control",66,"route 1",65,105.712121212121,"03:06:23",88,2,1,0.4,0.95,0.55,0.4,1,0.95,4,3,1,4,2,"control",68
"134","subRE2_2",2398,655863,10000,0.95,3,"see raw data",4,22,0.55,4,37,1,639092,"baseline",65,"route 1",65,108.369230769231,"03:06:23",88,2,1,0.4,0.95,0.55,0.4,1,0.95,4,3,1,4,1,"control",68
"135","subRE2_2",2214,669851,10000,0.2,6,"see raw data",4,23,0.95,10,65,1,655863,"baseline",66,"route 2",14,66.3538461538461,"03:06:23",88,2,2,0.75,0.95,0.2,0.75,1,0.95,6,4,1,6,1,"control",68
"136","subRE2_2",1965,1478737,10000,0.2,6,"see raw data",4,23,0.95,10,65,1,1462817,"control",66,"route 2",14,104.753846153846,"03:06:23",88,2,2,0.75,0.95,0.2,0.75,1,0.95,6,4,1,6,2,"control",68
"137","subRE2_2",2181,682807,10000,0.35,7,"see raw data",3,24,0.55,17,37,1,669851,"baseline",39,"route 2",24,86.3157894736842,"03:06:23",88,2,4,0.2,0.55,0.35,0.2,1,0.55,7,3,1,7,1,"control",68
"138","subRE2_2",1931,1491660,10000,0.35,7,"see raw data",3,24,0.55,17,37,1,1478737,"control",37,"route 2",24,104.378378378378,"03:06:23",88,2,4,0.2,0.55,0.35,0.2,1,0.55,7,3,1,7,2,"control",68
"139","subRE2_2",5030,699577,10000,0.35,6,"see raw data",7,25,0.2,24,14,1,682807,"baseline",25,"route 1",24,179.041666666667,"03:06:23",88,2,1,0.15,0.35,0.2,0.15,1,0.35,7,6,1,7,1,"control",68
"140","subRE2_2",1882,1503134,10000,0.35,6,"see raw data",7,25,0.2,24,14,1,1491660,"control",25,"route 1",24,100.583333333333,"03:06:23",88,2,1,0.15,0.35,0.2,0.15,1,0.35,7,6,1,7,2,"control",68
"141","subRE2_2",1835,713981,10000,0.2,6,"see raw data",4,26,0.75,30,51,1,699577,"baseline",53,"route 2",14,94.5849056603774,"03:06:23",88,2,2,0.55,0.75,0.2,0.55,1,0.75,6,4,1,6,1,"control",68
"142","subRE2_2",1816,1517921,10000,0.2,6,"see raw data",4,26,0.75,30,51,1,1503134,"control",52,"route 2",14,111.686274509804,"03:06:23",88,2,2,0.55,0.75,0.2,0.55,1,0.75,6,4,1,6,2,"control",68
"143","subRE2_2",3314,727137,10000,0.2,1,"see raw data",8,27,0.95,38,65,1,713981,"baseline",15,"route 1",14,190.285714285714,"03:06:23",88,2,7,0.75,0.2,0.95,-0.75,0,0.95,8,1,1,8,1,"control",68
"144","subRE2_2",8292,1535574,10000,0.2,1,"see raw data",8,27,0.95,38,65,1,1517921,"control",14,"route 1",14,161.714285714286,"03:06:23",88,2,7,0.75,0.2,0.95,-0.75,0,0.95,8,1,1,8,2,"control",68
"145","subRE2_2",2065,1550378,10000,0.75,6,"see raw data",7,28,0.35,45,24,1,1535574,"control",51,"route 1",51,106.745098039216,"03:06:23",88,2,1,0.4,0.75,0.35,0.4,1,0.75,7,6,1,7,2,"control",68
"146","subRE2_2",2065,741359,10000,0.75,6,"see raw data",7,28,0.35,45,24,1,727137,"baseline",52,"route 1",51,94.7884615384615,"03:06:23",88,2,1,0.4,0.75,0.35,0.4,1,0.75,7,6,1,7,1,"control",68
"147","subRE2_2",2032,756563,10000,0.35,4,"see raw data",3,29,0.95,49,65,1,741359,"baseline",65,"route 2",24,94.0615384615385,"03:06:23",88,2,1,0.6,0.95,0.35,0.6,1,0.95,4,3,1,4,1,"control",68
"148","subRE2_2",3296,1567281,10000,0.35,4,"see raw data",3,29,0.95,49,65,1,1550378,"control",67,"route 2",24,96.3787878787879,"03:06:23",88,2,1,0.6,0.95,0.35,0.6,1,0.95,4,3,1,4,2,"control",68
"149","subRE2_2",1948,768503,10000,0.35,5,"see raw data",6,30,0.2,55,14,1,756563,"baseline",26,"route 1",24,108.56,"03:06:23",88,2,1,0.15,0.35,0.2,0.15,1,0.35,6,5,1,6,1,"control",68
"150","subRE2_2",1881,1578938,10000,0.35,5,"see raw data",6,30,0.2,55,14,1,1567281,"control",25,"route 1",24,101.2,"03:06:23",88,2,1,0.15,0.35,0.2,0.15,1,0.35,6,5,1,6,2,"control",68
"151","subRE2_2",1832,781726,10000,0.2,5,"see raw data",3,31,0.55,60,37,1,768503,"baseline",38,"route 2",14,110.421052631579,"03:06:23",88,2,2,0.35,0.55,0.2,0.35,1,0.55,5,3,1,5,1,"control",68
"152","subRE2_2",3231,1593526,10000,0.2,5,"see raw data",3,31,0.55,60,37,1,1578938,"control",39,"route 2",14,109.230769230769,"03:06:23",88,2,2,0.35,0.55,0.2,0.35,1,0.55,5,3,1,5,2,"control",68
"153","subRE2_2",1915,798012,10000,0.95,3,"see raw data",7,32,0.2,67,14,1,781726,"baseline",66,"route 1",65,107.373134328358,"03:06:23",88,2,4,0.75,0.95,0.2,0.75,1,0.95,7,3,1,7,1,"control",68
"154","subRE2_2",2664,1609563,10000,0.95,3,"see raw data",7,32,0.2,67,14,1,1593526,"control",66,"route 1",65,93.955223880597,"03:06:23",88,2,4,0.75,0.95,0.2,0.75,1,0.95,7,3,1,7,2,"control",68
"155","subRE2_2",2498,823874,10000,0.2,7,"see raw data",6,33,0.75,7,51,1,809186,"baseline",52,"route 2",14,95.0196078431373,"03:06:23",88,2,1,0.55,0.75,0.2,0.55,1,0.75,7,6,1,7,1,"control",68
"156","subRE2_2",9741,1661670,10000,0.2,7,"see raw data",6,33,0.75,7,51,1,1639188,"control",51,"route 2",14,104.403846153846,"03:06:23",88,2,1,0.55,0.75,0.2,0.55,1,0.75,7,6,1,7,2,"control",68
"157","subRE2_2",2314,837380,10000,0.35,5,"see raw data",4,34,0.55,12,37,1,823874,"baseline",38,"route 2",24,102.513513513514,"03:06:23",88,2,1,0.2,0.55,0.35,0.2,1,0.55,5,4,1,5,1,"control",68
"158","subRE2_2",1949,1674793,10000,0.35,5,"see raw data",4,34,0.55,12,37,1,1661670,"control",39,"route 2",24,105.153846153846,"03:06:23",88,2,1,0.2,0.55,0.35,0.2,1,0.55,5,4,1,5,2,"control",68
"159","subRE2_2",2198,852783,10000,0.55,5,"see raw data",4,35,0.95,17,65,1,837380,"baseline",65,"route 2",37,94.203125,"03:06:23",88,2,1,0.4,0.95,0.55,0.4,1,0.95,5,4,1,5,1,"control",68
"160","subRE2_2",1948,1690098,10000,0.55,5,"see raw data",4,35,0.95,17,65,1,1674793,"control",66,"route 2",37,95.6363636363636,"03:06:23",88,2,1,0.4,0.95,0.55,0.4,1,0.95,5,4,1,5,2,"control",68
"161","subRE2_2",2082,865609,10000,0.55,4,"see raw data",7,36,0.35,24,24,1,852783,"baseline",37,"route 1",37,96.8421052631579,"03:06:23",88,2,3,0.2,0.55,0.35,0.2,1,0.55,7,4,1,7,1,"control",68
"162","subRE2_2",2165,1703053,10000,0.55,4,"see raw data",7,36,0.35,24,24,1,1690098,"control",38,"route 1",37,93.7894736842105,"03:06:23",88,2,3,0.2,0.55,0.35,0.2,1,0.55,7,4,1,7,2,"control",68
"163","subRE2_2",2065,881644,10000,0.2,7,"see raw data",3,37,0.95,31,65,1,865609,"baseline",66,"route 2",14,103.909090909091,"03:06:23",88,2,4,0.75,0.95,0.2,0.75,1,0.95,7,3,1,7,1,"control",68
"164","subRE2_2",2532,1718940,10000,0.2,7,"see raw data",3,37,0.95,31,65,1,1703053,"control",67,"route 2",14,92.0909090909091,"03:06:23",88,2,4,0.75,0.95,0.2,0.75,1,0.95,7,3,1,7,2,"control",68
"165","subRE2_2",9725,1742671,10000,0.95,3,"see raw data",6,38,0.55,37,37,1,1718940,"control",66,"route 1",65,94.2769230769231,"03:06:23",88,2,3,0.4,0.95,0.55,0.4,1,0.95,6,3,1,6,2,"control",68
"166","subRE2_2",1832,898064,10000,0.95,3,"see raw data",6,38,0.55,37,37,1,881644,"baseline",66,"route 1",65,105.507692307692,"03:06:23",88,2,3,0.4,0.95,0.55,0.4,1,0.95,6,3,1,6,1,"control",68
"167","subRE2_2",1915,914567,10000,0.35,6,"see raw data",4,39,0.95,43,65,1,898064,"baseline",65,"route 2",24,101.415384615385,"03:06:23",88,2,2,0.6,0.95,0.35,0.6,1,0.95,6,4,1,6,1,"control",68
"168","subRE2_2",2631,1758691,10000,0.35,6,"see raw data",4,39,0.95,43,65,1,1742671,"control",65,"route 2",24,94.171875,"03:06:23",88,2,2,0.6,0.95,0.35,0.6,1,0.95,6,4,1,6,2,"control",68
"169","subRE2_2",2032,929538,10000,0.75,4,"see raw data",6,40,0.2,49,14,1,914567,"baseline",52,"route 1",51,108.745098039216,"03:06:23",88,2,2,0.55,0.75,0.2,0.55,1,0.75,6,4,1,6,1,"control",68
"170","subRE2_2",1915,1773662,10000,0.75,4,"see raw data",6,40,0.2,49,14,1,1758691,"control",54,"route 1",51,100.547169811321,"03:06:23",88,2,2,0.55,0.75,0.2,0.55,1,0.75,6,4,1,6,2,"control",68
"171","subRE2_2",1832,944126,10000,0.75,6,"see raw data",4,41,0.95,55,65,1,929538,"baseline",66,"route 2",51,81.4242424242424,"03:06:23",88,2,2,0.2,0.95,0.75,0.2,1,0.95,6,4,1,6,1,"control",68
"172","subRE2_2",2048,1789282,10000,0.75,6,"see raw data",4,41,0.95,55,65,1,1773662,"control",65,"route 2",51,97.1363636363636,"03:06:23",88,2,2,0.2,0.95,0.75,0.2,1,0.95,6,4,1,6,2,"control",68
"173","subRE2_2",1899,956149,10000,0.2,7,"see raw data",5,42,0.55,62,37,1,944126,"baseline",37,"route 2",14,71.5405405405405,"03:06:23",88,2,2,0.35,0.55,0.2,0.35,1,0.55,7,5,1,7,1,"control",68
"174","subRE2_2",3963,1804653,10000,0.2,7,"see raw data",5,42,0.55,62,37,1,1789282,"control",38,"route 2",14,90.9189189189189,"03:06:23",88,2,2,0.35,0.55,0.2,0.35,1,0.55,7,5,1,7,2,"control",68
"175","subRE2_2",3883,1822305,10000,0.35,7,"see raw data",6,43,0.95,69,65,1,1804653,"control",65,"route 2",24,97.84375,"03:06:23",88,2,1,0.6,0.95,0.35,0.6,1,0.95,7,6,1,7,2,"control",68
"176","subRE2_2",1765,970687,10000,0.35,7,"see raw data",6,43,0.95,69,65,1,956149,"baseline",66,"route 2",24,80.4,"03:06:23",88,2,1,0.6,0.95,0.35,0.6,1,0.95,7,6,1,7,1,"control",68
"177","subRE2_3",2266,3976187,10000,0.95,3,"see raw data",7,0,0.35,7,19,1,0,"control",52,"route 1",52,143.78431372549,"15:05:30",88,3,4,0.6,0.95,0.35,0.6,1,0.95,7,3,1,7,2,"control",55
"178","subRE2_3",4283,3204915,10000,0.95,3,"see raw data",7,0,0.35,3,19,1,3190448,"baseline",19,"route 2",52,160.166666666667,"15:05:30",88,3,4,0.6,0.35,0.95,-0.6,0,0.95,3,7,0,7,1,"control",55
"179","subRE2_3",2183,3992521,10000,0.95,4,"see raw data",7,1,0.75,14,41,1,3976187,"control",52,"route 1",52,142.823529411765,"15:05:30",88,3,3,0.2,0.95,0.75,0.2,1,0.95,7,4,1,7,2,"control",55
"180","subRE2_3",3167,3223648,10000,0.95,4,"see raw data",7,1,0.75,10,41,1,3204915,"baseline",53,"route 1",52,164.75,"15:05:30",88,3,3,0.2,0.95,0.75,0.2,1,0.95,7,4,1,7,1,"control",55
"181","subRE2_3",1817,4006504,10000,0.2,6,"see raw data",4,2,0.55,20,30,1,3992521,"control",30,"route 2",11,139.068965517241,"15:05:30",88,3,2,0.35,0.55,0.2,0.35,1,0.55,6,4,1,6,2,"control",55
"182","subRE2_3",2683,3237282,10000,0.2,6,"see raw data",4,2,0.55,16,30,1,3223648,"baseline",31,"route 2",11,132.774193548387,"15:05:30",88,3,2,0.35,0.55,0.2,0.35,1,0.55,6,4,1,6,1,"control",55
"183","subRE2_3",3500,3249165,10000,0.75,4,"see raw data",5,3,0.2,20,11,1,3237282,"baseline",12,"route 2",41,145.454545454545,"15:05:30",88,3,1,0.55,0.2,0.75,-0.55,0,0.75,4,5,0,5,1,"control",55
"184","subRE2_3",2284,4017138,10000,0.75,4,"see raw data",5,3,0.2,24,11,1,4006504,"control",11,"route 2",41,139.454545454545,"15:05:30",88,3,1,0.55,0.2,0.75,-0.55,0,0.75,4,5,0,5,2,"control",55
"185","subRE2_3",4517,4034421,10000,0.75,7,"see raw data",5,4,0.95,29,52,1,4017138,"control",41,"route 1",41,145.425,"15:05:30",88,3,2,0.2,0.75,0.95,-0.2,0,0.95,5,7,0,7,2,"control",55
"186","subRE2_3",4966,3266299,10000,0.75,7,"see raw data",5,4,0.95,25,52,1,3249165,"baseline",41,"route 1",41,128.853658536585,"15:05:30",88,3,2,0.2,0.75,0.95,-0.2,0,0.95,5,7,0,7,1,"control",55
"187","subRE2_3",2867,4051671,10000,0.95,3,"see raw data",6,5,0.55,35,30,1,4034421,"control",52,"route 1",52,145.519230769231,"15:05:30",88,3,3,0.4,0.95,0.55,0.4,1,0.95,6,3,1,6,2,"control",55
"188","subRE2_3",4267,3281732,10000,0.95,3,"see raw data",6,5,0.55,28,30,1,3266299,"baseline",30,"route 2",52,147.2,"15:05:30",88,3,3,0.4,0.55,0.95,-0.4,0,0.95,3,6,0,6,1,"control",55
"189","subRE2_3",3000,4067671,10000,0.55,6,"see raw data",4,6,0.75,41,41,1,4051671,"control",42,"route 2",30,148.756097560976,"15:05:30",88,3,2,0.2,0.75,0.55,0.2,1,0.75,6,4,1,6,2,"control",55
"190","subRE2_3",12700,3306816,10000,0.55,6,"see raw data",4,6,0.75,34,41,1,3281732,"baseline",42,"route 2",30,132.928571428571,"15:05:30",88,3,2,0.2,0.75,0.55,0.2,1,0.75,6,4,1,6,1,"control",55
"191","subRE2_3",2033,3322632,10000,0.2,6,"see raw data",3,7,0.95,40,52,1,3306816,"baseline",53,"route 2",11,130.830188679245,"15:05:30",88,3,3,0.75,0.95,0.2,0.75,1,0.95,6,3,1,6,1,"control",55
"192","subRE2_3",2800,4084655,10000,0.2,6,"see raw data",3,7,0.95,47,52,1,4067671,"control",52,"route 2",11,139.882352941176,"15:05:30",88,3,3,0.75,0.95,0.2,0.75,1,0.95,6,3,1,6,2,"control",55
"193","subRE2_3",2550,3334782,10000,0.2,5,"see raw data",4,8,0.35,45,19,1,3322632,"baseline",19,"route 2",11,145.578947368421,"15:05:30",88,3,1,0.15,0.35,0.2,0.15,1,0.35,5,4,1,5,1,"control",55
"194","subRE2_3",4917,4099122,10000,0.2,5,"see raw data",4,8,0.35,52,19,1,4084655,"control",20,"route 2",11,146.526315789474,"15:05:30",88,3,1,0.15,0.35,0.2,0.15,1,0.35,5,4,1,5,2,"control",55
"195","subRE2_3",2133,3350899,10000,0.95,3,"see raw data",6,9,0.35,51,19,1,3334782,"baseline",53,"route 1",52,135.849056603774,"15:05:30",88,3,3,0.6,0.95,0.35,0.6,1,0.95,6,3,1,6,1,"control",55
"196","subRE2_3",2883,4115955,10000,0.95,3,"see raw data",6,9,0.35,58,19,1,4099122,"control",52,"route 1",52,134.647058823529,"15:05:30",88,3,3,0.6,0.95,0.35,0.6,1,0.95,6,3,1,6,2,"control",55
"197","subRE2_3",2683,4127989,10000,0.35,3,"see raw data",4,10,0.2,62,11,1,4115955,"control",19,"route 1",19,139.473684210526,"15:05:30",88,3,1,0.15,0.35,0.2,0.15,1,0.35,4,3,1,4,2,"control",55
"198","subRE2_3",1633,3362316,10000,0.35,3,"see raw data",4,10,0.2,55,11,1,3350899,"baseline",20,"route 1",19,145.578947368421,"15:05:30",88,3,1,0.15,0.35,0.2,0.15,1,0.35,4,3,1,4,1,"control",55
"199","subRE2_3",2517,4163223,10000,0.55,7,"see raw data",5,11,0.75,7,41,1,4146989,"control",41,"route 2",30,144.15,"15:05:30",88,3,2,0.2,0.75,0.55,0.2,1,0.75,7,5,1,7,2,"control",55
"200","subRE2_3",1600,3401583,10000,0.55,7,"see raw data",5,11,0.75,7,41,1,3387199,"baseline",41,"route 2",30,141.65,"15:05:30",88,3,2,0.2,0.75,0.55,0.2,1,0.75,7,5,1,7,1,"control",55
"201","subRE2_3",1950,3416683,10000,0.2,6,"see raw data",4,12,0.75,13,41,1,3401583,"baseline",41,"route 2",11,154.6,"15:05:30",88,3,2,0.55,0.75,0.2,0.55,1,0.75,6,4,1,6,1,"control",55
"202","subRE2_3",1867,4177472,10000,0.2,6,"see raw data",4,12,0.75,13,41,1,4163223,"control",41,"route 2",11,135.425,"15:05:30",88,3,2,0.55,0.75,0.2,0.55,1,0.75,6,4,1,6,2,"control",55
"203","subRE2_3",2000,3428450,10000,0.35,5,"see raw data",3,13,0.95,16,52,1,3416683,"baseline",19,"route 1",19,150,"15:05:30",88,3,2,0.6,0.35,0.95,-0.6,0,0.95,3,5,0,5,1,"control",55
"204","subRE2_3",1883,4188689,10000,0.35,5,"see raw data",3,13,0.95,16,52,1,4177472,"control",19,"route 1",19,143,"15:05:30",88,3,2,0.6,0.35,0.95,-0.6,0,0.95,3,5,0,5,2,"control",55
"205","subRE2_3",1717,4198739,10000,0.95,8,"see raw data",1,14,0.2,24,11,1,4188689,"control",12,"route 2",52,139.363636363636,"15:05:30",88,3,7,0.75,0.2,0.95,-0.75,0,0.95,8,1,1,8,2,"control",55
"206","subRE2_3",2767,3439583,10000,0.95,8,"see raw data",1,14,0.2,24,11,1,3428450,"baseline",12,"route 2",52,142.363636363636,"15:05:30",88,3,7,0.75,0.2,0.95,-0.75,0,0.95,8,1,1,8,1,"control",55
"207","subRE2_3",2616,3452183,10000,0.75,3,"see raw data",4,15,0.35,27,19,1,3439583,"baseline",19,"route 2",41,168.368421052632,"15:05:30",88,3,1,0.4,0.35,0.75,-0.4,0,0.75,3,4,0,4,1,"control",55
"208","subRE2_3",2650,4214172,10000,0.75,3,"see raw data",4,15,0.35,28,19,1,4198739,"control",41,"route 1",41,148.775,"15:05:30",88,3,1,0.4,0.75,0.35,0.4,1,0.75,4,3,1,4,2,"control",55
"209","subRE2_3",3750,3466533,10000,0.55,5,"see raw data",6,16,0.2,33,11,1,3452183,"baseline",30,"route 1",30,127,"15:05:30",88,3,1,0.35,0.55,0.2,0.35,1,0.55,6,5,1,6,1,"control",55
"210","subRE2_3",1667,4227006,10000,0.55,5,"see raw data",6,16,0.2,34,11,1,4214172,"control",30,"route 1",30,147.233333333333,"15:05:30",88,3,1,0.35,0.55,0.2,0.35,1,0.55,6,5,1,6,2,"control",55
"211","subRE2_3",2683,4238056,10000,0.95,3,"see raw data",5,17,0.2,37,11,1,4227006,"control",12,"route 2",52,142.363636363636,"15:05:30",88,3,2,0.75,0.2,0.95,-0.75,0,0.95,3,5,0,5,2,"control",55
"212","subRE2_3",2300,3477833,10000,0.95,3,"see raw data",5,17,0.2,36,11,1,3466533,"baseline",12,"route 2",52,171.181818181818,"15:05:30",88,3,2,0.75,0.2,0.95,-0.75,0,0.95,3,5,0,5,1,"control",55
"213","subRE2_3",1917,3489317,10000,0.95,4,"see raw data",5,18,0.35,40,19,1,3477833,"baseline",19,"route 2",52,149.105263157895,"15:05:30",88,3,1,0.6,0.35,0.95,-0.6,0,0.95,4,5,0,5,1,"control",55
"214","subRE2_3",1867,4249456,10000,0.95,4,"see raw data",5,18,0.35,41,19,1,4238056,"control",19,"route 2",52,143.444444444444,"15:05:30",88,3,1,0.6,0.35,0.95,-0.6,0,0.95,4,5,0,5,2,"control",55
"215","subRE2_3",2050,3499734,10000,0.95,3,"see raw data",5,19,0.2,43,11,1,3489317,"baseline",11,"route 2",52,147,"15:05:30",88,3,2,0.75,0.2,0.95,-0.75,0,0.95,3,5,0,5,1,"control",55
"216","subRE2_3",1684,4259490,10000,0.95,3,"see raw data",5,19,0.2,44,11,1,4249456,"control",11,"route 2",52,138.2,"15:05:30",88,3,2,0.75,0.2,0.95,-0.75,0,0.95,3,5,0,5,2,"control",55
"217","subRE2_3",1700,4275140,10000,0.95,4,"see raw data",7,20,0.55,51,30,1,4259490,"control",52,"route 1",52,141.509803921569,"15:05:30",88,3,3,0.4,0.95,0.55,0.4,1,0.95,7,4,1,7,2,"control",55
"218","subRE2_3",2083,3516167,10000,0.95,4,"see raw data",7,20,0.55,50,30,1,3499734,"baseline",52,"route 1",52,145.745098039216,"15:05:30",88,3,3,0.4,0.95,0.55,0.4,1,0.95,7,4,1,7,1,"control",55
"219","subRE2_3",2250,4285941,10000,0.75,6,"see raw data",7,21,0.2,57,11,1,4275140,"control",12,"route 2",41,154.545454545455,"15:05:30",88,3,1,0.55,0.2,0.75,-0.55,0,0.75,6,7,0,7,2,"control",55
"220","subRE2_3",1967,3526750,10000,0.75,6,"see raw data",7,21,0.2,56,11,1,3516167,"baseline",12,"route 2",41,152.75,"15:05:30",88,3,1,0.55,0.2,0.75,-0.55,0,0.75,6,7,0,7,1,"control",55
"221","subRE2_3",2133,4315940,10000,0.95,3,"see raw data",4,22,0.55,3,30,1,4302040,"control",30,"route 2",52,166.068965517241,"15:05:30",88,3,1,0.4,0.55,0.95,-0.4,0,0.95,3,4,0,4,2,"control",55
"222","subRE2_3",1883,3552734,10000,0.95,3,"see raw data",4,22,0.55,3,30,1,3539467,"baseline",30,"route 2",52,154.966666666667,"15:05:30",88,3,1,0.4,0.55,0.95,-0.4,0,0.95,3,4,0,4,1,"control",55
"223","subRE2_3",2350,4326640,10000,0.2,6,"see raw data",4,23,0.95,7,52,1,4315940,"control",11,"route 1",11,145,"15:05:30",88,3,2,0.75,0.2,0.95,-0.75,0,0.95,4,6,0,6,2,"control",55
"224","subRE2_3",2800,3564117,10000,0.2,6,"see raw data",4,23,0.95,7,52,1,3552734,"baseline",12,"route 1",11,145.833333333333,"15:05:30",88,3,2,0.75,0.2,0.95,-0.75,0,0.95,4,6,0,6,1,"control",55
"225","subRE2_3",1583,3576651,10000,0.35,7,"see raw data",3,24,0.55,14,30,1,3564117,"baseline",30,"route 2",19,137.8,"15:05:30",88,3,4,0.2,0.55,0.35,0.2,1,0.55,7,3,1,7,1,"control",55
"226","subRE2_3",1850,4340040,10000,0.35,7,"see raw data",3,24,0.55,14,30,1,4326640,"control",31,"route 2",19,158.9,"15:05:30",88,3,4,0.2,0.55,0.35,0.2,1,0.55,7,3,1,7,2,"control",55
"227","subRE2_3",4100,3590534,10000,0.35,6,"see raw data",7,25,0.2,21,11,1,3576651,"baseline",20,"route 1",19,149.157894736842,"15:05:30",88,3,1,0.15,0.35,0.2,0.15,1,0.35,7,6,1,7,1,"control",55
"228","subRE2_3",1867,4351857,10000,0.35,6,"see raw data",7,25,0.2,21,11,1,4340040,"control",20,"route 1",19,166.65,"15:05:30",88,3,1,0.15,0.35,0.2,0.15,1,0.35,7,6,1,7,2,"control",55
"229","subRE2_3",2800,3606118,10000,0.2,6,"see raw data",4,26,0.75,27,41,1,3590534,"baseline",42,"route 2",11,143.90243902439,"15:05:30",88,3,2,0.55,0.75,0.2,0.55,1,0.75,6,4,1,6,1,"control",55
"230","subRE2_3",2867,4367874,10000,0.2,6,"see raw data",4,26,0.75,27,41,1,4351857,"control",41,"route 2",11,153.725,"15:05:30",88,3,2,0.55,0.75,0.2,0.55,1,0.75,6,4,1,6,2,"control",55
"231","subRE2_3",7634,3622301,10000,0.2,1,"see raw data",8,27,0.95,35,52,1,3606118,"baseline",12,"route 1",11,141.666666666667,"15:05:30",88,3,7,0.75,0.2,0.95,-0.75,0,0.95,8,1,1,8,1,"control",55
"232","subRE2_3",1700,4378124,10000,0.2,1,"see raw data",8,27,0.95,35,52,1,4367874,"control",11,"route 1",11,162.090909090909,"15:05:30",88,3,7,0.75,0.2,0.95,-0.75,0,0.95,8,1,1,8,2,"control",55
"233","subRE2_3",2450,3634318,10000,0.75,6,"see raw data",7,28,0.35,41,19,1,3622301,"baseline",20,"route 2",41,142.105263157895,"15:05:30",88,3,1,0.4,0.35,0.75,-0.4,0,0.75,6,7,0,7,1,"control",55
"234","subRE2_3",2750,4390841,10000,0.75,6,"see raw data",7,28,0.35,41,19,1,4378124,"control",20,"route 2",41,171,"15:05:30",88,3,1,0.4,0.35,0.75,-0.4,0,0.75,6,7,0,7,2,"control",55
"235","subRE2_3",1767,4402557,10000,0.35,4,"see raw data",3,29,0.95,44,52,1,4390841,"control",20,"route 1",19,169.263157894737,"15:05:30",88,3,1,0.6,0.35,0.95,-0.6,0,0.95,3,4,0,4,2,"control",55
"236","subRE2_3",2117,3646186,10000,0.35,4,"see raw data",3,29,0.95,44,52,1,3634318,"baseline",20,"route 1",19,153.526315789474,"15:05:30",88,3,1,0.6,0.35,0.95,-0.6,0,0.95,3,4,0,4,1,"control",55
"237","subRE2_3",3233,4415357,10000,0.35,5,"see raw data",6,30,0.2,50,11,1,4402557,"control",19,"route 1",19,149.105263157895,"15:05:30",88,3,1,0.15,0.35,0.2,0.15,1,0.35,6,5,1,6,2,"control",55
"238","subRE2_3",2367,3659118,10000,0.35,5,"see raw data",6,30,0.2,50,11,1,3646186,"baseline",20,"route 1",19,149.157894736842,"15:05:30",88,3,1,0.15,0.35,0.2,0.15,1,0.35,6,5,1,6,1,"control",55
"239","subRE2_3",1634,3672535,10000,0.2,5,"see raw data",3,31,0.55,55,30,1,3659118,"baseline",30,"route 2",11,159.172413793103,"15:05:30",88,3,2,0.35,0.55,0.2,0.35,1,0.55,5,3,1,5,1,"control",55
"240","subRE2_3",2051,4429174,10000,0.2,5,"see raw data",3,31,0.55,55,30,1,4415357,"control",30,"route 2",11,167.766666666667,"15:05:30",88,3,2,0.35,0.55,0.2,0.35,1,0.55,5,3,1,5,2,"control",55
"241","subRE2_3",4567,4447324,10000,0.95,3,"see raw data",7,32,0.2,62,11,1,4429174,"control",52,"route 1",52,131.096153846154,"15:05:30",88,3,4,0.75,0.95,0.2,0.75,1,0.95,7,3,1,7,2,"control",55
"242","subRE2_3",2266,3689152,10000,0.95,3,"see raw data",7,32,0.2,62,11,1,3672535,"baseline",52,"route 1",52,145.745098039216,"15:05:30",88,3,4,0.75,0.95,0.2,0.75,1,0.95,7,3,1,7,1,"control",55
"243","subRE2_3",2484,4471842,10000,0.2,7,"see raw data",6,33,0.75,6,41,1,4459775,"control",11,"route 1",11,189.363636363636,"15:05:30",88,3,1,0.55,0.2,0.75,-0.55,0,0.75,6,7,0,7,2,"control",55
"244","subRE2_3",2649,3715585,10000,0.2,7,"see raw data",6,33,0.75,7,41,1,3700385,"baseline",41,"route 2",11,141.878048780488,"15:05:30",88,3,1,0.55,0.75,0.2,0.55,1,0.75,7,6,1,7,1,"control",55
"245","subRE2_3",1750,3728719,10000,0.35,5,"see raw data",4,34,0.55,12,30,1,3715585,"baseline",30,"route 2",19,153.9,"15:05:30",88,3,1,0.2,0.55,0.35,0.2,1,0.55,5,4,1,5,1,"control",55
"246","subRE2_3",2483,4485875,10000,0.35,5,"see raw data",4,34,0.55,11,30,1,4471842,"control",30,"route 2",19,160.896551724138,"15:05:30",88,3,1,0.2,0.55,0.35,0.2,1,0.55,5,4,1,5,2,"control",55
"247","subRE2_3",1550,4499408,10000,0.55,5,"see raw data",4,35,0.95,15,52,1,4485875,"control",31,"route 1",30,173.9,"15:05:30",88,3,1,0.4,0.55,0.95,-0.4,0,0.95,4,5,0,5,2,"control",55
"248","subRE2_3",6367,3746452,10000,0.55,5,"see raw data",4,35,0.95,16,52,1,3728719,"baseline",31,"route 1",30,146.225806451613,"15:05:30",88,3,1,0.4,0.55,0.95,-0.4,0,0.95,4,5,0,5,1,"control",55
"249","subRE2_3",1734,4512708,10000,0.55,4,"see raw data",7,36,0.35,22,19,1,4499408,"control",30,"route 1",30,163.333333333333,"15:05:30",88,3,3,0.2,0.55,0.35,0.2,1,0.55,7,4,1,7,2,"control",55
"250","subRE2_3",12800,3770402,10000,0.55,4,"see raw data",7,36,0.35,23,19,1,3746452,"baseline",31,"route 1",30,142.2,"15:05:30",88,3,3,0.2,0.55,0.35,0.2,1,0.55,7,4,1,7,1,"control",55
"251","subRE2_3",4683,4532159,10000,0.2,7,"see raw data",3,37,0.95,29,52,1,4512708,"control",53,"route 2",11,154.480769230769,"15:05:30",88,3,4,0.75,0.95,0.2,0.75,1,0.95,7,3,1,7,2,"control",55
"252","subRE2_3",3583,3788319,10000,0.2,7,"see raw data",3,37,0.95,30,52,1,3770402,"baseline",53,"route 2",11,143.903846153846,"15:05:30",88,3,4,0.75,0.95,0.2,0.75,1,0.95,7,3,1,7,1,"control",55
"253","subRE2_3",2550,3805469,10000,0.95,3,"see raw data",6,38,0.55,36,30,1,3788319,"baseline",53,"route 1",52,149.038461538462,"15:05:30",88,3,3,0.4,0.95,0.55,0.4,1,0.95,6,3,1,6,1,"control",55
"254","subRE2_3",2233,4546025,10000,0.95,3,"see raw data",6,38,0.55,32,30,1,4532159,"control",30,"route 2",52,163.241379310345,"15:05:30",88,3,3,0.4,0.55,0.95,-0.4,0,0.95,3,6,0,6,2,"control",55
"255","subRE2_3",4200,3819219,10000,0.35,6,"see raw data",4,39,0.95,40,52,1,3805469,"baseline",19,"route 1",19,148.263157894737,"15:05:30",88,3,2,0.6,0.35,0.95,-0.6,0,0.95,4,6,0,6,1,"control",55
"256","subRE2_3",1900,4557509,10000,0.35,6,"see raw data",4,39,0.95,36,52,1,4546025,"control",19,"route 1",19,147.222222222222,"15:05:30",88,3,2,0.6,0.35,0.95,-0.6,0,0.95,4,6,0,6,2,"control",55
"257","subRE2_3",1950,3834336,10000,0.75,4,"see raw data",6,40,0.2,46,11,1,3819219,"baseline",41,"route 1",41,154.878048780488,"15:05:30",88,3,2,0.55,0.75,0.2,0.55,1,0.75,6,4,1,6,1,"control",55
"258","subRE2_3",3967,4574475,10000,0.75,4,"see raw data",6,40,0.2,42,11,1,4557509,"control",41,"route 1",41,154.15,"15:05:30",88,3,2,0.55,0.75,0.2,0.55,1,0.75,6,4,1,6,2,"control",55
"259","subRE2_3",2050,3849119,10000,0.75,6,"see raw data",4,41,0.95,50,52,1,3834336,"baseline",41,"route 1",41,147.975609756098,"15:05:30",88,3,2,0.2,0.75,0.95,-0.2,0,0.95,4,6,0,6,1,"control",55
"260","subRE2_3",1984,4589826,10000,0.75,6,"see raw data",4,41,0.95,46,52,1,4574475,"control",41,"route 1",41,163.390243902439,"15:05:30",88,3,2,0.2,0.75,0.95,-0.2,0,0.95,4,6,0,6,2,"control",55
"261","subRE2_3",1900,4603109,10000,0.2,7,"see raw data",5,42,0.55,53,30,1,4589826,"control",31,"route 2",11,153.333333333333,"15:05:30",88,3,2,0.35,0.55,0.2,0.35,1,0.55,7,5,1,7,2,"control",55
"262","subRE2_3",2633,3863119,10000,0.2,7,"see raw data",5,42,0.55,57,30,1,3849119,"baseline",30,"route 2",11,150.551724137931,"15:05:30",88,3,2,0.35,0.55,0.2,0.35,1,0.55,7,5,1,7,1,"control",55
"263","subRE2_3",2934,3875637,10000,0.35,7,"see raw data",6,43,0.95,63,52,1,3863119,"baseline",20,"route 1",19,143.842105263158,"15:05:30",88,3,1,0.6,0.35,0.95,-0.6,0,0.95,6,7,0,7,1,"control",55
"264","subRE2_3",1500,4614376,10000,0.35,7,"see raw data",6,43,0.95,59,52,1,4603109,"control",19,"route 1",19,160.222222222222,"15:05:30",88,3,1,0.6,0.35,0.95,-0.6,0,0.95,6,7,0,7,2,"control",55
"265","subRE2_4",5016,1553232,10000,0.95,3,"see raw data",7,0,0.35,7,21,1,0,"planning",57,"route 1",56,146.210526315789,"13:55:45",88,4,4,0.6,0.95,0.35,0.6,1,0.95,7,3,1,7,2,"planning",59
"266","subRE2_4",4766,289434,10000,0.95,3,"see raw data",7,0,0.35,7,21,1,269334,"baseline",57,"route 1",56,149.125,"13:55:45",88,4,4,0.6,0.95,0.35,0.6,1,0.95,7,3,1,7,1,"planning",59
"267","subRE2_4",3216,306634,10000,0.95,4,"see raw data",7,1,0.75,11,44,1,289434,"baseline",45,"route 2",56,159.454545454545,"13:55:45",88,4,3,0.2,0.75,0.95,-0.2,0,0.95,4,7,0,7,1,"planning",59
"268","subRE2_4",5986,1575082,10000,0.95,4,"see raw data",7,1,0.75,14,44,1,1553232,"planning",56,"route 1",56,158.946428571429,"13:55:45",88,4,3,0.2,0.95,0.75,0.2,1,0.95,7,4,1,7,2,"planning",59
"269","subRE2_4",4100,322716,10000,0.2,6,"see raw data",4,2,0.55,17,32,1,306634,"baseline",33,"route 2",12,155.030303030303,"13:55:45",88,4,2,0.35,0.55,0.2,0.35,1,0.55,6,4,1,6,1,"planning",59
"270","subRE2_4",3237,1590802,10000,0.2,6,"see raw data",4,2,0.55,20,32,1,1575082,"planning",32,"route 2",12,173.5625,"13:55:45",88,4,2,0.35,0.55,0.2,0.35,1,0.55,6,4,1,6,2,"planning",59
"271","subRE2_4",2350,338417,10000,0.75,4,"see raw data",5,3,0.2,22,12,1,322716,"baseline",44,"route 1",44,148.863636363636,"13:55:45",88,4,1,0.55,0.75,0.2,0.55,1,0.75,5,4,1,5,1,"planning",59
"272","subRE2_4",1827,1606942,10000,0.75,4,"see raw data",5,3,0.2,25,12,1,1590802,"planning",45,"route 1",44,167.75,"13:55:45",88,4,1,0.55,0.75,0.2,0.55,1,0.75,5,4,1,5,2,"planning",59
"273","subRE2_4",2550,354950,10000,0.75,7,"see raw data",5,4,0.95,27,56,1,338417,"baseline",44,"route 1",44,163.636363636364,"13:55:45",88,4,2,0.2,0.75,0.95,-0.2,0,0.95,5,7,0,7,1,"planning",59
"274","subRE2_4",2522,1625618,10000,0.75,7,"see raw data",5,4,0.95,32,56,1,1606942,"planning",56,"route 2",44,166.089285714286,"13:55:45",88,4,2,0.2,0.95,0.75,0.2,1,0.95,7,5,1,7,2,"planning",59
"275","subRE2_4",1990,1643845,10000,0.95,3,"see raw data",6,5,0.55,38,32,1,1625618,"planning",57,"route 1",56,163.875,"13:55:45",88,4,3,0.4,0.95,0.55,0.4,1,0.95,6,3,1,6,2,"planning",59
"276","subRE2_4",3683,374233,10000,0.95,3,"see raw data",6,5,0.55,33,32,1,354950,"baseline",56,"route 1",56,157.446428571429,"13:55:45",88,4,3,0.4,0.95,0.55,0.4,1,0.95,6,3,1,6,1,"planning",59
"277","subRE2_4",3284,391317,10000,0.55,6,"see raw data",4,6,0.75,39,44,1,374233,"baseline",44,"route 2",32,158.318181818182,"13:55:45",88,4,2,0.2,0.75,0.55,0.2,1,0.75,6,4,1,6,1,"planning",59
"278","subRE2_4",2250,1660266,10000,0.55,6,"see raw data",4,6,0.75,44,44,1,1643845,"planning",44,"route 2",32,162.340909090909,"13:55:45",88,4,2,0.2,0.75,0.55,0.2,1,0.75,6,4,1,6,2,"planning",59
"279","subRE2_4",2816,409899,10000,0.2,6,"see raw data",3,7,0.95,45,56,1,391317,"baseline",56,"route 2",12,160.410714285714,"13:55:45",88,4,3,0.75,0.95,0.2,0.75,1,0.95,6,3,1,6,1,"planning",59
"280","subRE2_4",1996,1678580,10000,0.2,6,"see raw data",3,7,0.95,50,56,1,1660266,"planning",57,"route 2",12,169.298245614035,"13:55:45",88,4,3,0.75,0.95,0.2,0.75,1,0.95,6,3,1,6,2,"planning",59
"281","subRE2_4",2650,422898,10000,0.2,5,"see raw data",4,8,0.35,50,21,1,409899,"baseline",22,"route 2",12,166.666666666667,"13:55:45",88,4,1,0.15,0.35,0.2,0.15,1,0.35,5,4,1,5,1,"planning",59
"282","subRE2_4",4594,1694130,10000,0.2,5,"see raw data",4,8,0.35,55,21,1,1678580,"planning",21,"route 2",12,188.47619047619,"13:55:45",88,4,1,0.15,0.35,0.2,0.15,1,0.35,5,4,1,5,2,"planning",59
"283","subRE2_4",1783,440648,10000,0.95,3,"see raw data",6,9,0.35,56,21,1,422898,"baseline",57,"route 1",56,160.714285714286,"13:55:45",88,4,3,0.6,0.95,0.35,0.6,1,0.95,6,3,1,6,1,"planning",59
"284","subRE2_4",7271,1717418,10000,0.95,3,"see raw data",6,9,0.35,61,21,1,1694130,"planning",57,"route 1",56,164.821428571429,"13:55:45",88,4,3,0.6,0.95,0.35,0.6,1,0.95,6,3,1,6,2,"planning",59
"285","subRE2_4",2500,453532,10000,0.35,3,"see raw data",4,10,0.2,60,12,1,440648,"baseline",22,"route 1",21,167.47619047619,"13:55:45",88,4,1,0.15,0.35,0.2,0.15,1,0.35,4,3,1,4,1,"planning",59
"286","subRE2_4",2393,1729833,10000,0.35,3,"see raw data",4,10,0.2,65,12,1,1717418,"planning",21,"route 1",21,155.809523809524,"13:55:45",88,4,1,0.15,0.35,0.2,0.15,1,0.35,4,3,1,4,2,"planning",59
"287","subRE2_4",1922,1851010,10000,0.55,7,"see raw data",5,11,0.75,7,44,1,1834917,"planning",44,"route 2",32,166.136363636364,"13:55:45",88,4,2,0.2,0.75,0.55,0.2,1,0.75,7,5,1,7,2,"planning",59
"288","subRE2_4",2351,511614,10000,0.55,7,"see raw data",5,11,0.75,7,44,1,495715,"baseline",45,"route 2",32,151.136363636364,"13:55:45",88,4,2,0.2,0.75,0.55,0.2,1,0.75,7,5,1,7,1,"planning",59
"289","subRE2_4",1584,1866498,10000,0.2,6,"see raw data",4,12,0.75,13,44,1,1851010,"planning",44,"route 2",12,158.909090909091,"13:55:45",88,4,2,0.55,0.75,0.2,0.55,1,0.75,6,4,1,6,2,"planning",59
"290","subRE2_4",1933,527314,10000,0.2,6,"see raw data",4,12,0.75,13,44,1,511614,"baseline",45,"route 2",12,155.295454545455,"13:55:45",88,4,2,0.55,0.75,0.2,0.55,1,0.75,6,4,1,6,1,"planning",59
"291","subRE2_4",2500,545397,10000,0.35,5,"see raw data",3,13,0.95,18,56,1,527314,"baseline",57,"route 2",21,155.642857142857,"13:55:45",88,4,2,0.6,0.95,0.35,0.6,1,0.95,5,3,1,5,1,"planning",59
"292","subRE2_4",1572,1883201,10000,0.35,5,"see raw data",3,13,0.95,18,56,1,1866498,"planning",57,"route 2",21,148.946428571429,"13:55:45",88,4,2,0.6,0.95,0.35,0.6,1,0.95,5,3,1,5,2,"planning",59
"293","subRE2_4",4683,558864,10000,0.95,8,"see raw data",1,14,0.2,26,12,1,545397,"baseline",13,"route 2",56,157.692307692308,"13:55:45",88,4,7,0.75,0.2,0.95,-0.75,0,0.95,8,1,1,8,1,"planning",59
"294","subRE2_4",1983,1893756,10000,0.95,8,"see raw data",1,14,0.2,26,12,1,1883201,"planning",12,"route 2",56,148.272727272727,"13:55:45",88,4,7,0.75,0.2,0.95,-0.75,0,0.95,8,1,1,8,2,"planning",59
"295","subRE2_4",1844,1910122,10000,0.75,3,"see raw data",4,15,0.35,30,21,1,1893756,"planning",44,"route 1",44,175.613636363636,"13:55:45",88,4,1,0.4,0.75,0.35,0.4,1,0.75,4,3,1,4,2,"planning",59
"296","subRE2_4",2683,575513,10000,0.75,3,"see raw data",4,15,0.35,30,21,1,558864,"baseline",45,"route 1",44,162.222222222222,"13:55:45",88,4,1,0.4,0.75,0.35,0.4,1,0.75,4,3,1,4,1,"planning",59
"297","subRE2_4",1732,1923396,10000,0.55,5,"see raw data",6,16,0.2,36,12,1,1910122,"planning",32,"route 1",32,148,"13:55:45",88,4,1,0.35,0.55,0.2,0.35,1,0.55,6,5,1,6,2,"planning",59
"298","subRE2_4",2016,589496,10000,0.55,5,"see raw data",6,16,0.2,36,12,1,575513,"baseline",32,"route 1",32,166.65625,"13:55:45",88,4,1,0.35,0.55,0.2,0.35,1,0.55,6,5,1,6,1,"planning",59
"299","subRE2_4",2232,607696,10000,0.95,3,"see raw data",5,17,0.2,41,12,1,589496,"baseline",57,"route 1",56,162.767857142857,"13:55:45",88,4,2,0.75,0.95,0.2,0.75,1,0.95,5,3,1,5,1,"planning",59
"300","subRE2_4",3287,1942001,10000,0.95,3,"see raw data",5,17,0.2,41,12,1,1923396,"planning",56,"route 1",56,156.589285714286,"13:55:45",88,4,2,0.75,0.95,0.2,0.75,1,0.95,5,3,1,5,2,"planning",59
"301","subRE2_4",2835,1960610,10000,0.95,4,"see raw data",5,18,0.35,46,21,1,1942001,"planning",56,"route 1",56,163.5,"13:55:45",88,4,1,0.6,0.95,0.35,0.6,1,0.95,5,4,1,5,2,"planning",59
"302","subRE2_4",1683,630979,10000,0.95,4,"see raw data",5,18,0.35,41,21,0,607696,"baseline",54,"route 1",56,174.092592592593,"13:55:45",88,4,1,0.6,0.95,0.35,0.6,1,0.95,5,4,1,5,1,"planning",59
"303","subRE2_4",2299,648646,10000,0.95,3,"see raw data",5,19,0.2,46,12,1,630979,"baseline",56,"route 1",56,154.236363636364,"13:55:45",88,4,2,0.75,0.95,0.2,0.75,1,0.95,5,3,1,5,1,"planning",59
"304","subRE2_4",1898,1978209,10000,0.95,3,"see raw data",5,19,0.2,51,12,1,1960610,"planning",57,"route 1",56,159.894736842105,"13:55:45",88,4,2,0.75,0.95,0.2,0.75,1,0.95,5,3,1,5,2,"planning",59
"305","subRE2_4",2404,1995794,10000,0.95,4,"see raw data",7,20,0.55,58,32,1,1978209,"planning",56,"route 1",56,152.839285714286,"13:55:45",88,4,3,0.4,0.95,0.55,0.4,1,0.95,7,4,1,7,2,"planning",59
"306","subRE2_4",2634,667045,10000,0.95,4,"see raw data",7,20,0.55,53,32,1,648646,"baseline",57,"route 1",56,159.821428571429,"13:55:45",88,4,3,0.4,0.95,0.55,0.4,1,0.95,7,4,1,7,1,"planning",59
"307","subRE2_4",3850,679662,10000,0.75,6,"see raw data",7,21,0.2,59,12,1,667045,"baseline",13,"route 2",44,159.75,"13:55:45",88,4,1,0.55,0.2,0.75,-0.55,0,0.75,6,7,0,7,1,"planning",59
"308","subRE2_4",1557,2011825,10000,0.75,6,"see raw data",7,21,0.2,65,12,1,1995794,"planning",44,"route 1",44,177.093023255814,"13:55:45",88,4,1,0.55,0.75,0.2,0.55,1,0.75,7,6,1,7,2,"planning",59
"309","subRE2_4",2850,780993,10000,0.95,3,"see raw data",4,22,0.55,3,32,1,766181,"baseline",32,"route 2",56,161.4375,"13:55:45",88,4,1,0.4,0.55,0.95,-0.4,0,0.95,3,4,0,4,1,"planning",59
"310","subRE2_4",1795,2067121,10000,0.95,3,"see raw data",4,22,0.55,4,32,1,2050143,"planning",57,"route 1",56,147.59649122807,"13:55:45",88,4,1,0.4,0.95,0.55,0.4,1,0.95,4,3,1,4,2,"planning",59
"311","subRE2_4",1928,2084407,10000,0.2,6,"see raw data",4,23,0.95,10,56,1,2067121,"planning",56,"route 2",12,155.678571428571,"13:55:45",88,4,2,0.75,0.95,0.2,0.75,1,0.95,6,4,1,6,2,"planning",59
"312","subRE2_4",4300,800493,10000,0.2,6,"see raw data",4,23,0.95,9,56,1,780993,"baseline",56,"route 2",12,150,"13:55:45",88,4,2,0.75,0.95,0.2,0.75,1,0.95,6,4,1,6,1,"planning",59
"313","subRE2_4",1623,2097991,10000,0.35,7,"see raw data",3,24,0.55,17,32,1,2084407,"planning",33,"route 2",21,158.69696969697,"13:55:45",88,4,4,0.2,0.55,0.35,0.2,1,0.55,7,3,1,7,2,"planning",59
"314","subRE2_4",2332,814910,10000,0.35,7,"see raw data",3,24,0.55,16,32,1,800493,"baseline",32,"route 2",21,163,"13:55:45",88,4,4,0.2,0.55,0.35,0.2,1,0.55,7,3,1,7,1,"planning",59
"315","subRE2_4",12950,837876,10000,0.35,6,"see raw data",7,25,0.2,23,12,1,814910,"baseline",21,"route 1",21,149.952380952381,"13:55:45",88,4,1,0.15,0.35,0.2,0.15,1,0.35,7,6,1,7,1,"planning",59
"316","subRE2_4",1937,2110071,10000,0.35,6,"see raw data",7,25,0.2,24,12,1,2097991,"planning",21,"route 1",21,156.380952380952,"13:55:45",88,4,1,0.15,0.35,0.2,0.15,1,0.35,7,6,1,7,2,"planning",59
"317","subRE2_4",2050,853826,10000,0.2,6,"see raw data",4,26,0.75,29,44,1,837876,"baseline",45,"route 2",12,157.568181818182,"13:55:45",88,4,2,0.55,0.75,0.2,0.55,1,0.75,6,4,1,6,1,"planning",59
"318","subRE2_4",2028,2126423,10000,0.2,6,"see raw data",4,26,0.75,30,44,1,2110071,"planning",45,"route 2",12,163.25,"13:55:45",88,4,2,0.55,0.75,0.2,0.55,1,0.75,6,4,1,6,2,"planning",59
"319","subRE2_4",6000,2141141,10000,0.2,1,"see raw data",8,27,0.95,38,56,1,2126423,"planning",12,"route 1",12,151.083333333333,"13:55:45",88,4,7,0.75,0.2,0.95,-0.75,0,0.95,8,1,1,8,2,"planning",59
"320","subRE2_4",13866,876526,10000,0.2,1,"see raw data",8,27,0.95,37,56,1,853826,"baseline",12,"route 1",12,155.583333333333,"13:55:45",88,4,7,0.75,0.2,0.95,-0.75,0,0.95,8,1,1,8,1,"planning",59
"321","subRE2_4",2093,2157840,10000,0.75,6,"see raw data",7,28,0.35,45,21,1,2141141,"planning",44,"route 1",44,177.022727272727,"13:55:45",88,4,1,0.4,0.75,0.35,0.4,1,0.75,7,6,1,7,2,"planning",59
"322","subRE2_4",2965,892925,10000,0.75,6,"see raw data",7,28,0.35,44,21,1,876526,"baseline",44,"route 1",44,147.727272727273,"13:55:45",88,4,1,0.4,0.75,0.35,0.4,1,0.75,7,6,1,7,1,"planning",59
"323","subRE2_4",4934,913328,10000,0.35,4,"see raw data",3,29,0.95,48,56,1,892925,"baseline",56,"route 2",21,152.375,"13:55:45",88,4,1,0.6,0.95,0.35,0.6,1,0.95,4,3,1,4,1,"planning",59
"324","subRE2_4",1995,2176073,10000,0.35,4,"see raw data",3,29,0.95,49,56,1,2157840,"planning",57,"route 2",21,167.678571428571,"13:55:45",88,4,1,0.6,0.95,0.35,0.6,1,0.95,4,3,1,4,2,"planning",59
"325","subRE2_4",3147,2190026,10000,0.35,5,"see raw data",6,30,0.2,55,12,1,2176073,"planning",21,"route 1",21,172.238095238095,"13:55:45",88,4,1,0.15,0.35,0.2,0.15,1,0.35,6,5,1,6,2,"planning",59
"326","subRE2_4",22300,945641,10000,0.35,5,"see raw data",6,30,0.2,54,12,1,913328,"baseline",21,"route 1",21,151.619047619048,"13:55:45",88,4,1,0.15,0.35,0.2,0.15,1,0.35,6,5,1,6,1,"planning",59
"327","subRE2_4",2214,959584,10000,0.2,5,"see raw data",3,31,0.55,59,32,1,945641,"baseline",32,"route 2",12,147.75,"13:55:45",88,4,2,0.35,0.55,0.2,0.35,1,0.55,5,3,1,5,1,"planning",59
"328","subRE2_4",1652,2203859,10000,0.2,5,"see raw data",3,31,0.55,60,32,1,2190026,"planning",32,"route 2",12,163.483870967742,"13:55:45",88,4,2,0.35,0.55,0.2,0.35,1,0.55,5,3,1,5,2,"planning",59
"329","subRE2_4",13072,988757,10000,0.95,3,"see raw data",7,32,0.2,66,12,1,959584,"baseline",56,"route 1",56,158.428571428571,"13:55:45",88,4,4,0.75,0.95,0.2,0.75,1,0.95,7,3,1,7,1,"planning",59
"330","subRE2_4",2481,2221953,10000,0.95,3,"see raw data",7,32,0.2,67,12,1,2203859,"planning",57,"route 1",56,155.631578947368,"13:55:45",88,4,4,0.75,0.95,0.2,0.75,1,0.95,7,3,1,7,2,"planning",59
"331","subRE2_4",1866,2284340,10000,0.2,7,"see raw data",6,33,0.75,7,44,1,2269010,"planning",44,"route 2",12,151.068181818182,"13:55:45",88,4,1,0.55,0.75,0.2,0.55,1,0.75,7,6,1,7,2,"planning",59
"332","subRE2_4",2383,1065043,10000,0.2,7,"see raw data",6,33,0.75,7,44,1,1048718,"baseline",45,"route 2",12,156.068181818182,"13:55:45",88,4,1,0.55,0.75,0.2,0.55,1,0.75,7,6,1,7,1,"planning",59
"333","subRE2_4",2222,2298524,10000,0.35,5,"see raw data",4,34,0.55,12,32,1,2284340,"planning",32,"route 2",21,157.032258064516,"13:55:45",88,4,1,0.2,0.55,0.35,0.2,1,0.55,5,4,1,5,2,"planning",59
"334","subRE2_4",2012,1078793,10000,0.35,5,"see raw data",4,34,0.55,12,32,1,1065043,"baseline",32,"route 2",21,152.258064516129,"13:55:45",88,4,1,0.2,0.55,0.35,0.2,1,0.55,5,4,1,5,1,"planning",59
"335","subRE2_4",1855,2316144,10000,0.55,5,"see raw data",4,35,0.95,17,56,1,2298524,"planning",56,"route 2",32,161.618181818182,"13:55:45",88,4,1,0.4,0.95,0.55,0.4,1,0.95,5,4,1,5,2,"planning",59
"336","subRE2_4",2076,1093110,10000,0.55,5,"see raw data",4,35,0.95,16,56,1,1078793,"baseline",32,"route 1",32,168.225806451613,"13:55:45",88,4,1,0.4,0.55,0.95,-0.4,0,0.95,4,5,0,5,1,"planning",59
"337","subRE2_4",8014,1114572,10000,0.55,4,"see raw data",7,36,0.35,23,21,1,1093110,"baseline",33,"route 1",32,192.4375,"13:55:45",88,4,3,0.2,0.55,0.35,0.2,1,0.55,7,4,1,7,1,"planning",59
"338","subRE2_4",1711,2329688,10000,0.55,4,"see raw data",7,36,0.35,24,21,1,2316144,"planning",32,"route 1",32,157.290322580645,"13:55:45",88,4,3,0.2,0.55,0.35,0.2,1,0.55,7,4,1,7,2,"planning",59
"339","subRE2_4",1980,1132989,10000,0.2,7,"see raw data",3,37,0.95,30,56,1,1114572,"baseline",56,"route 2",12,170.428571428571,"13:55:45",88,4,4,0.75,0.95,0.2,0.75,1,0.95,7,3,1,7,1,"planning",59
"340","subRE2_4",19654,2365400,10000,0.2,7,"see raw data",3,37,0.95,31,56,1,2329688,"planning",56,"route 2",12,166.672727272727,"13:55:45",88,4,4,0.75,0.95,0.2,0.75,1,0.95,7,3,1,7,2,"planning",59
"341","subRE2_4",1942,2382555,10000,0.95,3,"see raw data",6,38,0.55,37,32,1,2365400,"planning",56,"route 1",56,148.714285714286,"13:55:45",88,4,3,0.4,0.95,0.55,0.4,1,0.95,6,3,1,6,2,"planning",59
"342","subRE2_4",52103,1200971,10000,0.95,3,"see raw data",6,38,0.55,36,32,1,1132989,"baseline",56,"route 1",56,156.553571428571,"13:55:45",88,4,3,0.4,0.95,0.55,0.4,1,0.95,6,3,1,6,1,"planning",59
"343","subRE2_4",3067,2401633,10000,0.35,6,"see raw data",4,39,0.95,43,56,1,2382555,"planning",56,"route 2",21,162.745454545455,"13:55:45",88,4,2,0.6,0.95,0.35,0.6,1,0.95,6,4,1,6,2,"planning",59
"344","subRE2_4",14866,1298552,10000,0.35,6,"see raw data",4,39,0.95,42,56,1,1200971,"baseline",57,"route 2",21,152.25,"13:55:45",88,4,2,0.6,0.95,0.35,0.6,1,0.95,6,4,1,6,1,"planning",59
"345","subRE2_4",1810,1313869,10000,0.75,4,"see raw data",6,40,0.2,48,12,1,1298552,"baseline",45,"route 1",44,150.340909090909,"13:55:45",88,4,2,0.55,0.75,0.2,0.55,1,0.75,6,4,1,6,1,"planning",59
"346","subRE2_4",1852,2417470,10000,0.75,4,"see raw data",6,40,0.2,49,12,1,2401633,"planning",45,"route 1",44,159.244444444444,"13:55:45",88,4,2,0.55,0.75,0.2,0.55,1,0.75,6,4,1,6,2,"planning",59
"347","subRE2_4",2547,1329976,10000,0.75,6,"see raw data",4,41,0.95,52,56,1,1313869,"baseline",44,"route 1",44,152.681818181818,"13:55:45",88,4,2,0.2,0.75,0.95,-0.2,0,0.95,4,6,0,6,1,"planning",59
"348","subRE2_4",1328,2435252,10000,0.75,6,"see raw data",4,41,0.95,55,56,1,2417470,"planning",57,"route 2",44,167.321428571429,"13:55:45",88,4,2,0.2,0.95,0.75,0.2,1,0.95,6,4,1,6,2,"planning",59
"349","subRE2_4",3288,2451369,10000,0.2,7,"see raw data",5,42,0.55,62,32,1,2435252,"planning",32,"route 2",12,181.75,"13:55:45",88,4,2,0.35,0.55,0.2,0.35,1,0.55,7,5,1,7,2,"planning",59
"350","subRE2_4",1863,1343985,10000,0.2,7,"see raw data",5,42,0.55,59,32,1,1329976,"baseline",33,"route 2",12,165.90625,"13:55:45",88,4,2,0.35,0.55,0.2,0.35,1,0.55,7,5,1,7,1,"planning",59
"351","subRE2_4",1984,1361899,10000,0.35,7,"see raw data",6,43,0.95,66,56,1,1343985,"baseline",56,"route 2",21,161.910714285714,"13:55:45",88,4,1,0.6,0.95,0.35,0.6,1,0.95,7,6,1,7,1,"planning",59
"352","subRE2_4",30217,2497354,10000,0.35,7,"see raw data",6,43,0.95,69,56,1,2451369,"planning",56,"route 2",21,157.642857142857,"13:55:45",88,4,1,0.6,0.95,0.35,0.6,1,0.95,7,6,1,7,2,"planning",59
"353","subRE2_5",4333,200890,10000,0.95,3,"see raw data",7,0,0.35,7,20,1,180607,"baseline",54,"route 1",53,160.075471698113,"11:30:39",88,5,4,0.6,0.95,0.35,0.6,1,0.95,7,3,1,7,1,"control",56
"354","subRE2_5",1800,952371,10000,0.95,3,"see raw data",7,0,0.35,3,20,1,0,"control",20,"route 2",53,174.1,"11:30:39",88,5,4,0.6,0.35,0.95,-0.6,0,0.95,3,7,0,7,2,"control",56
"355","subRE2_5",3017,219873,10000,0.95,4,"see raw data",7,1,0.75,14,42,1,200890,"baseline",53,"route 1",53,161.641509433962,"11:30:39",88,5,3,0.2,0.95,0.75,0.2,1,0.95,7,4,1,7,1,"control",56
"356","subRE2_5",1533,967872,10000,0.95,4,"see raw data",7,1,0.75,7,42,1,952371,"control",43,"route 2",53,166.261904761905,"11:30:39",88,5,3,0.2,0.75,0.95,-0.2,0,0.95,4,7,0,7,2,"control",56
"357","subRE2_5",1934,982187,10000,0.2,6,"see raw data",4,2,0.55,13,31,1,967872,"control",32,"route 2",11,166.129032258065,"11:30:39",88,5,2,0.35,0.55,0.2,0.35,1,0.55,6,4,1,6,2,"control",56
"358","subRE2_5",2833,236056,10000,0.2,6,"see raw data",4,2,0.55,20,31,1,219873,"baseline",32,"route 2",11,166.15625,"11:30:39",88,5,2,0.35,0.55,0.2,0.35,1,0.55,6,4,1,6,1,"control",56
"359","subRE2_5",2867,993670,10000,0.75,4,"see raw data",5,3,0.2,17,11,1,982187,"control",11,"route 2",42,160,"11:30:39",88,5,1,0.55,0.2,0.75,-0.55,0,0.75,4,5,0,5,2,"control",56
"360","subRE2_5",4700,249940,10000,0.75,4,"see raw data",5,3,0.2,24,11,1,236056,"baseline",12,"route 2",42,171.272727272727,"11:30:39",88,5,1,0.55,0.2,0.75,-0.55,0,0.75,4,5,0,5,1,"control",56
"361","subRE2_5",2183,1010003,10000,0.75,7,"see raw data",5,4,0.95,22,53,1,993670,"control",43,"route 1",42,171.833333333333,"11:30:39",88,5,2,0.2,0.75,0.95,-0.2,0,0.95,5,7,0,7,2,"control",56
"362","subRE2_5",3916,268223,10000,0.75,7,"see raw data",5,4,0.95,29,53,1,249940,"baseline",42,"route 1",42,172.571428571429,"11:30:39",88,5,2,0.2,0.75,0.95,-0.2,0,0.95,5,7,0,7,1,"control",56
"363","subRE2_5",3600,287789,10000,0.95,3,"see raw data",6,5,0.55,35,31,1,268223,"baseline",53,"route 1",53,169.471698113208,"11:30:39",88,5,3,0.4,0.95,0.55,0.4,1,0.95,6,3,1,6,1,"control",56
"364","subRE2_5",1783,1024720,10000,0.95,3,"see raw data",6,5,0.55,25,31,1,1010003,"control",31,"route 2",53,197.8,"11:30:39",88,5,3,0.4,0.55,0.95,-0.4,0,0.95,3,6,0,6,2,"control",56
"365","subRE2_5",2750,304689,10000,0.55,6,"see raw data",4,6,0.75,41,42,1,287789,"baseline",43,"route 2",31,167.857142857143,"11:30:39",88,5,2,0.2,0.75,0.55,0.2,1,0.75,6,4,1,6,1,"control",56
"366","subRE2_5",2885,1040536,10000,0.55,6,"see raw data",4,6,0.75,29,42,1,1024720,"control",31,"route 1",31,188.3,"11:30:39",88,5,2,0.2,0.55,0.75,-0.2,0,0.75,4,6,0,6,2,"control",56
"367","subRE2_5",1916,1051404,10000,0.2,6,"see raw data",3,7,0.95,32,53,1,1040536,"control",11,"route 1",11,180,"11:30:39",88,5,3,0.75,0.2,0.95,-0.75,0,0.95,3,6,0,6,2,"control",56
"368","subRE2_5",2802,316855,10000,0.2,6,"see raw data",3,7,0.95,44,53,1,304689,"baseline",11,"route 1",11,198.454545454545,"11:30:39",88,5,3,0.75,0.2,0.95,-0.75,0,0.95,3,6,0,6,1,"control",56
"369","subRE2_5",3200,330423,10000,0.2,5,"see raw data",4,8,0.35,49,20,1,316855,"baseline",20,"route 2",11,164.947368421053,"11:30:39",88,5,1,0.15,0.35,0.2,0.15,1,0.35,5,4,1,5,1,"control",56
"370","subRE2_5",2333,1064303,10000,0.2,5,"see raw data",4,8,0.35,37,20,1,1051404,"control",20,"route 2",11,174.578947368421,"11:30:39",88,5,1,0.15,0.35,0.2,0.15,1,0.35,5,4,1,5,2,"control",56
"371","subRE2_5",2666,349255,10000,0.95,3,"see raw data",6,9,0.35,55,20,1,330423,"baseline",53,"route 1",53,173.905660377358,"11:30:39",88,5,3,0.6,0.95,0.35,0.6,1,0.95,6,3,1,6,1,"control",56
"372","subRE2_5",1900,1076753,10000,0.95,3,"see raw data",6,9,0.35,40,20,1,1064303,"control",20,"route 2",53,183.368421052632,"11:30:39",88,5,3,0.6,0.35,0.95,-0.6,0,0.95,3,6,0,6,2,"control",56
"373","subRE2_5",3083,362689,10000,0.35,3,"see raw data",4,10,0.2,59,11,1,349255,"baseline",20,"route 1",20,168.35,"11:30:39",88,5,1,0.15,0.35,0.2,0.15,1,0.35,4,3,1,4,1,"control",56
"374","subRE2_5",2267,1089387,10000,0.35,3,"see raw data",4,10,0.2,44,11,1,1076753,"control",20,"route 1",20,172.789473684211,"11:30:39",88,5,1,0.15,0.35,0.2,0.15,1,0.35,4,3,1,4,2,"control",56
"375","subRE2_5",2268,421622,10000,0.55,7,"see raw data",5,11,0.75,7,42,1,405556,"baseline",42,"route 2",31,160.690476190476,"11:30:39",88,5,2,0.2,0.75,0.55,0.2,1,0.75,7,5,1,7,1,"control",56
"376","subRE2_5",3901,1124270,10000,0.55,7,"see raw data",5,11,0.75,7,42,1,1105370,"control",42,"route 2",31,158.926829268293,"11:30:39",88,5,2,0.2,0.75,0.55,0.2,1,0.75,7,5,1,7,2,"control",56
"377","subRE2_5",2167,437972,10000,0.2,6,"see raw data",4,12,0.75,13,42,1,421622,"baseline",42,"route 2",11,168.285714285714,"11:30:39",88,5,2,0.55,0.75,0.2,0.55,1,0.75,6,4,1,6,1,"control",56
"378","subRE2_5",2433,1140470,10000,0.2,6,"see raw data",4,12,0.75,13,42,1,1124270,"control",42,"route 2",11,163.829268292683,"11:30:39",88,5,2,0.55,0.75,0.2,0.55,1,0.75,6,4,1,6,2,"control",56
"379","subRE2_5",2283,1153304,10000,0.35,5,"see raw data",3,13,0.95,16,53,1,1140470,"control",20,"route 1",20,174.526315789474,"11:30:39",88,5,2,0.6,0.35,0.95,-0.6,0,0.95,3,5,0,5,2,"control",56
"380","subRE2_5",2334,450873,10000,0.35,5,"see raw data",3,13,0.95,16,53,1,437972,"baseline",20,"route 1",20,177.210526315789,"11:30:39",88,5,2,0.6,0.35,0.95,-0.6,0,0.95,3,5,0,5,1,"control",56
"381","subRE2_5",1683,1163954,10000,0.95,8,"see raw data",1,14,0.2,24,11,1,1153304,"control",12,"route 2",53,184.909090909091,"11:30:39",88,5,7,0.75,0.2,0.95,-0.75,0,0.95,8,1,1,8,2,"control",56
"382","subRE2_5",4099,463939,10000,0.95,8,"see raw data",1,14,0.2,24,11,1,450873,"baseline",11,"route 2",53,168.2,"11:30:39",88,5,7,0.75,0.2,0.95,-0.75,0,0.95,8,1,1,8,1,"control",56
"383","subRE2_5",2283,1180620,10000,0.75,3,"see raw data",4,15,0.35,28,20,1,1163954,"control",42,"route 1",42,174.619047619048,"11:30:39",88,5,1,0.4,0.75,0.35,0.4,1,0.75,4,3,1,4,2,"control",56
"384","subRE2_5",4317,479238,10000,0.75,3,"see raw data",4,15,0.35,27,20,1,463939,"baseline",20,"route 2",42,192,"11:30:39",88,5,1,0.4,0.35,0.75,-0.4,0,0.75,3,4,0,4,1,"control",56
"385","subRE2_5",4766,493189,10000,0.55,5,"see raw data",6,16,0.2,32,11,1,479238,"baseline",11,"route 2",31,203.3,"11:30:39",88,5,1,0.35,0.2,0.55,-0.35,0,0.55,5,6,0,6,1,"control",56
"386","subRE2_5",1767,1194770,10000,0.55,5,"see raw data",6,16,0.2,34,11,1,1180620,"control",31,"route 1",31,173.677419354839,"11:30:39",88,5,1,0.35,0.55,0.2,0.35,1,0.55,6,5,1,6,2,"control",56
"387","subRE2_5",3533,505671,10000,0.95,3,"see raw data",5,17,0.2,35,11,1,493189,"baseline",11,"route 2",53,193.3,"11:30:39",88,5,2,0.75,0.2,0.95,-0.75,0,0.95,3,5,0,5,1,"control",56
"388","subRE2_5",1433,1205172,10000,0.95,3,"see raw data",5,17,0.2,37,11,1,1194770,"control",11,"route 2",53,178.727272727273,"11:30:39",88,5,2,0.75,0.2,0.95,-0.75,0,0.95,3,5,0,5,2,"control",56
"389","subRE2_5",2901,519322,10000,0.95,4,"see raw data",5,18,0.35,39,20,1,505671,"baseline",20,"route 2",53,187.684210526316,"11:30:39",88,5,1,0.6,0.35,0.95,-0.6,0,0.95,4,5,0,5,1,"control",56
"390","subRE2_5",1535,1217071,10000,0.95,4,"see raw data",5,18,0.35,41,20,1,1205172,"control",20,"route 2",53,177.210526315789,"11:30:39",88,5,1,0.6,0.35,0.95,-0.6,0,0.95,4,5,0,5,2,"control",56
"391","subRE2_5",2451,531138,10000,0.95,3,"see raw data",5,19,0.2,42,11,1,519322,"baseline",11,"route 2",53,210,"11:30:39",88,5,2,0.75,0.2,0.95,-0.75,0,0.95,3,5,0,5,1,"control",56
"392","subRE2_5",1633,1227853,10000,0.95,3,"see raw data",5,19,0.2,44,11,1,1217071,"control",12,"route 2",53,200.090909090909,"11:30:39",88,5,2,0.75,0.2,0.95,-0.75,0,0.95,3,5,0,5,2,"control",56
"393","subRE2_5",1950,545871,10000,0.95,4,"see raw data",7,20,0.55,46,31,1,531138,"baseline",31,"route 2",53,188.3,"11:30:39",88,5,3,0.4,0.55,0.95,-0.4,0,0.95,4,7,0,7,1,"control",56
"394","subRE2_5",1483,1241903,10000,0.95,4,"see raw data",7,20,0.55,48,31,1,1227853,"control",31,"route 2",53,181.666666666667,"11:30:39",88,5,3,0.4,0.55,0.95,-0.4,0,0.95,4,7,0,7,2,"control",56
"395","subRE2_5",2134,1252987,10000,0.75,6,"see raw data",7,21,0.2,54,11,1,1241903,"control",11,"route 2",42,183.4,"11:30:39",88,5,1,0.55,0.2,0.75,-0.55,0,0.75,6,7,0,7,2,"control",56
"396","subRE2_5",2918,557738,10000,0.75,6,"see raw data",7,21,0.2,52,11,1,545871,"baseline",11,"route 2",42,190,"11:30:39",88,5,1,0.55,0.2,0.75,-0.55,0,0.75,6,7,0,7,1,"control",56
"397","subRE2_5",1617,1447102,10000,0.95,3,"see raw data",4,22,0.55,3,31,1,1433502,"control",31,"route 2",53,165.032258064516,"11:30:39",88,5,1,0.4,0.55,0.95,-0.4,0,0.95,3,4,0,4,2,"control",56
"398","subRE2_5",3167,588805,10000,0.95,3,"see raw data",4,22,0.55,3,31,1,573455,"baseline",31,"route 2",53,164.433333333333,"11:30:39",88,5,1,0.4,0.55,0.95,-0.4,0,0.95,3,4,0,4,1,"control",56
"399","subRE2_5",3334,601721,10000,0.2,6,"see raw data",4,23,0.95,7,53,1,588805,"baseline",11,"route 1",11,250,"11:30:39",88,5,2,0.75,0.2,0.95,-0.75,0,0.95,4,6,0,6,1,"control",56
"400","subRE2_5",1767,1457819,10000,0.2,6,"see raw data",4,23,0.95,7,53,1,1447102,"control",12,"route 1",11,180.363636363636,"11:30:39",88,5,2,0.75,0.2,0.95,-0.75,0,0.95,4,6,0,6,2,"control",56
"401","subRE2_5",2300,1472286,10000,0.35,7,"see raw data",3,24,0.55,14,31,1,1457819,"control",31,"route 2",20,155.033333333333,"11:30:39",88,5,4,0.2,0.55,0.35,0.2,1,0.55,7,3,1,7,2,"control",56
"402","subRE2_5",2117,616205,10000,0.35,7,"see raw data",3,24,0.55,14,31,1,601721,"baseline",31,"route 2",20,172.233333333333,"11:30:39",88,5,4,0.2,0.55,0.35,0.2,1,0.55,7,3,1,7,1,"control",56
"403","subRE2_5",1917,1484385,10000,0.35,6,"see raw data",7,25,0.2,21,11,1,1472286,"control",20,"route 1",20,168.421052631579,"11:30:39",88,5,1,0.15,0.35,0.2,0.15,1,0.35,7,6,1,7,2,"control",56
"404","subRE2_5",2419,629371,10000,0.35,6,"see raw data",7,25,0.2,21,11,1,616205,"baseline",20,"route 1",20,167.526315789474,"11:30:39",88,5,1,0.15,0.35,0.2,0.15,1,0.35,7,6,1,7,1,"control",56
"405","subRE2_5",2234,1495385,10000,0.2,6,"see raw data",4,26,0.75,25,42,1,1484385,"control",11,"route 1",11,166.8,"11:30:39",88,5,2,0.55,0.2,0.75,-0.55,0,0.75,4,6,0,6,2,"control",56
"406","subRE2_5",3501,646821,10000,0.2,6,"see raw data",4,26,0.75,27,42,1,629371,"baseline",43,"route 2",11,164.666666666667,"11:30:39",88,5,2,0.55,0.75,0.2,0.55,1,0.75,6,4,1,6,1,"control",56
"407","subRE2_5",1717,1505852,10000,0.2,1,"see raw data",8,27,0.95,33,53,1,1495385,"control",11,"route 1",11,170,"11:30:39",88,5,7,0.75,0.2,0.95,-0.75,0,0.95,8,1,1,8,2,"control",56
"408","subRE2_5",2235,658022,10000,0.2,1,"see raw data",8,27,0.95,35,53,1,646821,"baseline",12,"route 1",11,174.272727272727,"11:30:39",88,5,7,0.75,0.2,0.95,-0.75,0,0.95,8,1,1,8,1,"control",56
"409","subRE2_5",2800,1519053,10000,0.75,6,"see raw data",7,28,0.35,39,20,1,1505852,"control",20,"route 2",42,178.052631578947,"11:30:39",88,5,1,0.4,0.35,0.75,-0.4,0,0.75,6,7,0,7,2,"control",56
"410","subRE2_5",2733,671339,10000,0.75,6,"see raw data",7,28,0.35,41,20,1,658022,"baseline",20,"route 2",42,171.052631578947,"11:30:39",88,5,1,0.4,0.35,0.75,-0.4,0,0.75,6,7,0,7,1,"control",56
"411","subRE2_5",1850,1531253,10000,0.35,4,"see raw data",3,29,0.95,42,53,1,1519053,"control",21,"route 1",20,175,"11:30:39",88,5,1,0.6,0.35,0.95,-0.6,0,0.95,3,4,0,4,2,"control",56
"412","subRE2_5",2533,684438,10000,0.35,4,"see raw data",3,29,0.95,44,53,1,671339,"baseline",20,"route 1",20,175.8,"11:30:39",88,5,1,0.6,0.35,0.95,-0.6,0,0.95,3,4,0,4,1,"control",56
"413","subRE2_5",1832,1543485,10000,0.35,5,"see raw data",6,30,0.2,48,11,1,1531253,"control",20,"route 1",20,183.315789473684,"11:30:39",88,5,1,0.15,0.35,0.2,0.15,1,0.35,6,5,1,6,2,"control",56
"414","subRE2_5",2133,697338,10000,0.35,5,"see raw data",6,30,0.2,50,11,1,684438,"baseline",20,"route 1",20,188.631578947368,"11:30:39",88,5,1,0.15,0.35,0.2,0.15,1,0.35,6,5,1,6,1,"control",56
"415","subRE2_5",1899,1557552,10000,0.2,5,"see raw data",3,31,0.55,53,31,1,1543485,"control",32,"route 2",11,165.612903225806,"11:30:39",88,5,2,0.35,0.55,0.2,0.35,1,0.55,5,3,1,5,2,"control",56
"416","subRE2_5",2184,711855,10000,0.2,5,"see raw data",3,31,0.55,55,31,1,697338,"baseline",31,"route 2",11,174.161290322581,"11:30:39",88,5,2,0.35,0.55,0.2,0.35,1,0.55,5,3,1,5,1,"control",56
"417","subRE2_5",2000,1568318,10000,0.95,3,"see raw data",7,32,0.2,56,11,1,1557552,"control",11,"route 2",53,178.818181818182,"11:30:39",88,5,4,0.75,0.2,0.95,-0.75,0,0.95,3,7,0,7,2,"control",56
"418","subRE2_5",2250,723072,10000,0.95,3,"see raw data",7,32,0.2,58,11,1,711855,"baseline",11,"route 2",53,185,"11:30:39",88,5,4,0.75,0.2,0.95,-0.75,0,0.95,3,7,0,7,1,"control",56
"419","subRE2_5",2400,745172,10000,0.2,7,"see raw data",6,33,0.75,6,42,1,733989,"baseline",11,"route 1",11,171.6,"11:30:39",88,5,1,0.55,0.2,0.75,-0.55,0,0.75,6,7,0,7,1,"control",56
"420","subRE2_5",2666,1594052,10000,0.2,7,"see raw data",6,33,0.75,6,42,1,1582002,"control",11,"route 1",11,204.9,"11:30:39",88,5,1,0.55,0.2,0.75,-0.55,0,0.75,6,7,0,7,2,"control",56
"421","subRE2_5",3133,1607969,10000,0.35,5,"see raw data",4,34,0.55,10,31,1,1594052,"control",20,"route 1",20,195.578947368421,"11:30:39",88,5,1,0.2,0.35,0.55,-0.2,0,0.55,4,5,0,5,2,"control",56
"422","subRE2_5",2650,760205,10000,0.35,5,"see raw data",4,34,0.55,11,31,1,745172,"baseline",31,"route 2",20,167.766666666667,"11:30:39",88,5,1,0.2,0.55,0.35,0.2,1,0.55,5,4,1,5,1,"control",56
"423","subRE2_5",1535,1621685,10000,0.55,5,"see raw data",4,35,0.95,14,53,1,1607969,"control",31,"route 1",31,172.2,"11:30:39",88,5,1,0.4,0.55,0.95,-0.4,0,0.95,4,5,0,5,2,"control",56
"424","subRE2_5",2083,774621,10000,0.55,5,"see raw data",4,35,0.95,15,53,1,760205,"baseline",31,"route 1",31,173.333333333333,"11:30:39",88,5,1,0.4,0.55,0.95,-0.4,0,0.95,4,5,0,5,1,"control",56
"425","subRE2_5",2149,789555,10000,0.55,4,"see raw data",7,36,0.35,22,20,1,774621,"baseline",31,"route 1",31,185,"11:30:39",88,5,3,0.2,0.55,0.35,0.2,1,0.55,7,4,1,7,1,"control",56
"426","subRE2_5",2400,1636236,10000,0.55,4,"see raw data",7,36,0.35,21,20,1,1621685,"control",31,"route 1",31,172.266666666667,"11:30:39",88,5,3,0.2,0.55,0.35,0.2,1,0.55,7,4,1,7,2,"control",56
"427","subRE2_5",1850,1646835,10000,0.2,7,"see raw data",3,37,0.95,24,53,1,1636236,"control",11,"route 1",11,166.727272727273,"11:30:39",88,5,4,0.75,0.2,0.95,-0.75,0,0.95,3,7,0,7,2,"control",56
"428","subRE2_5",2149,801071,10000,0.2,7,"see raw data",3,37,0.95,25,53,1,789555,"baseline",11,"route 1",11,218.090909090909,"11:30:39",88,5,4,0.75,0.2,0.95,-0.75,0,0.95,3,7,0,7,1,"control",56
"429","subRE2_5",1900,1661101,10000,0.95,3,"see raw data",6,38,0.55,27,31,1,1646835,"control",31,"route 2",53,163.333333333333,"11:30:39",88,5,3,0.4,0.55,0.95,-0.4,0,0.95,3,6,0,6,2,"control",56
"430","subRE2_5",1833,815471,10000,0.95,3,"see raw data",6,38,0.55,28,31,1,801071,"baseline",31,"route 2",53,175,"11:30:39",88,5,3,0.4,0.55,0.95,-0.4,0,0.95,3,6,0,6,1,"control",56
"431","subRE2_5",1867,1673352,10000,0.35,6,"see raw data",4,39,0.95,31,53,1,1661101,"control",20,"route 1",20,171.947368421053,"11:30:39",88,5,2,0.6,0.35,0.95,-0.6,0,0.95,4,6,0,6,2,"control",56
"432","subRE2_5",2000,828055,10000,0.35,6,"see raw data",4,39,0.95,32,53,1,815471,"baseline",20,"route 1",20,183.35,"11:30:39",88,5,2,0.6,0.35,0.95,-0.6,0,0.95,4,6,0,6,1,"control",56
"433","subRE2_5",2550,1685035,10000,0.75,4,"see raw data",6,40,0.2,35,11,1,1673352,"control",11,"route 2",42,210.636363636364,"11:30:39",88,5,2,0.55,0.2,0.75,-0.55,0,0.75,4,6,0,6,2,"control",56
"434","subRE2_5",2668,839904,10000,0.75,4,"see raw data",6,40,0.2,36,11,1,828055,"baseline",11,"route 2",42,194.9,"11:30:39",88,5,2,0.55,0.2,0.75,-0.55,0,0.75,4,6,0,6,1,"control",56
"435","subRE2_5",2567,856439,10000,0.75,6,"see raw data",4,41,0.95,40,53,1,839904,"baseline",42,"route 1",42,166.682926829268,"11:30:39",88,5,2,0.2,0.75,0.95,-0.2,0,0.95,4,6,0,6,1,"control",56
"436","subRE2_5",1567,1700335,10000,0.75,6,"see raw data",4,41,0.95,39,53,1,1685035,"control",42,"route 1",42,163.095238095238,"11:30:39",88,5,2,0.2,0.75,0.95,-0.2,0,0.95,4,6,0,6,2,"control",56
"437","subRE2_5",2517,871088,10000,0.2,7,"see raw data",5,42,0.55,47,31,1,856439,"baseline",31,"route 2",11,166.677419354839,"11:30:39",88,5,2,0.35,0.55,0.2,0.35,1,0.55,7,5,1,7,1,"control",56
"438","subRE2_5",2667,1714768,10000,0.2,7,"see raw data",5,42,0.55,46,31,1,1700335,"control",31,"route 2",11,155.533333333333,"11:30:39",88,5,2,0.35,0.55,0.2,0.35,1,0.55,7,5,1,7,2,"control",56
"439","subRE2_5",1516,1726251,10000,0.35,7,"see raw data",6,43,0.95,52,53,1,1714768,"control",20,"route 1",20,155.210526315789,"11:30:39",88,5,1,0.6,0.35,0.95,-0.6,0,0.95,6,7,0,7,2,"control",56
"440","subRE2_5",2018,883255,10000,0.35,7,"see raw data",6,43,0.95,53,53,1,871088,"baseline",20,"route 1",20,164.1,"11:30:39",88,5,1,0.6,0.35,0.95,-0.6,0,0.95,6,7,0,7,1,"control",56
"441","subRE2_6",2950,272993,10000,0.95,3,"see raw data",7,0,0.35,7,24,1,254310,"baseline",67,"route 1",65,123.484848484848,"15:05:02",88,6,4,0.6,0.95,0.35,0.6,1,0.95,7,3,1,7,1,"control",68
"442","subRE2_6",3900,1076076,10000,0.95,3,"see raw data",7,0,0.35,3,24,1,0,"control",25,"route 2",65,137.5,"15:05:02",88,6,4,0.6,0.35,0.95,-0.6,0,0.95,3,7,0,7,2,"control",68
"443","subRE2_6",1616,296209,10000,0.95,4,"see raw data",7,1,0.75,7,51,0,272993,"baseline",62,"route 1",65,148.112903225806,"15:05:02",88,6,3,0.2,0.95,0.75,0.2,1,0.95,7,4,1,7,1,"control",68
"444","subRE2_6",2266,1092143,10000,0.95,4,"see raw data",7,1,0.75,7,51,1,1076076,"control",51,"route 2",65,129.745098039216,"15:05:02",88,6,3,0.2,0.75,0.95,-0.2,0,0.95,4,7,0,7,2,"control",68
"445","subRE2_6",2767,310992,10000,0.2,6,"see raw data",4,2,0.55,13,37,1,296209,"baseline",37,"route 2",14,125.216216216216,"15:05:02",88,6,2,0.35,0.55,0.2,0.35,1,0.55,6,4,1,6,1,"control",68
"446","subRE2_6",2067,1106159,10000,0.2,6,"see raw data",4,2,0.55,13,37,1,1092143,"control",37,"route 2",14,131.972972972973,"15:05:02",88,6,2,0.35,0.55,0.2,0.35,1,0.55,6,4,1,6,2,"control",68
"447","subRE2_6",1984,1121924,10000,0.75,4,"see raw data",5,3,0.2,18,14,1,1106159,"control",52,"route 1",51,125.471698113208,"15:05:02",88,6,1,0.55,0.75,0.2,0.55,1,0.75,5,4,1,5,2,"control",68
"448","subRE2_6",1900,326457,10000,0.75,4,"see raw data",5,3,0.2,18,14,1,310992,"baseline",51,"route 1",51,123.862745098039,"15:05:02",88,6,1,0.55,0.75,0.2,0.55,1,0.75,5,4,1,5,1,"control",68
"449","subRE2_6",2533,344357,10000,0.75,7,"see raw data",5,4,0.95,25,65,1,326457,"baseline",66,"route 2",51,123.090909090909,"15:05:02",88,6,2,0.2,0.95,0.75,0.2,1,0.95,7,5,1,7,1,"control",68
"450","subRE2_6",2067,1137557,10000,0.75,7,"see raw data",5,4,0.95,23,65,1,1121924,"control",52,"route 1",51,122.442307692308,"15:05:02",88,6,2,0.2,0.75,0.95,-0.2,0,0.95,5,7,0,7,2,"control",68
"451","subRE2_6",1750,1151073,10000,0.95,3,"see raw data",6,5,0.55,26,37,1,1137557,"control",38,"route 2",65,122.230769230769,"15:05:02",88,6,3,0.4,0.55,0.95,-0.4,0,0.95,3,6,0,6,2,"control",68
"452","subRE2_6",2217,362306,10000,0.95,3,"see raw data",6,5,0.55,31,37,1,344357,"baseline",67,"route 1",65,128.10447761194,"15:05:02",88,6,3,0.4,0.95,0.55,0.4,1,0.95,6,3,1,6,1,"control",68
"453","subRE2_6",2217,378055,10000,0.55,6,"see raw data",4,6,0.75,37,51,1,362306,"baseline",52,"route 2",37,126.576923076923,"15:05:02",88,6,2,0.2,0.75,0.55,0.2,1,0.75,6,4,1,6,1,"control",68
"454","subRE2_6",3467,1167889,10000,0.55,6,"see raw data",4,6,0.75,32,51,1,1151073,"control",52,"route 2",37,122.442307692308,"15:05:02",88,6,2,0.2,0.75,0.55,0.2,1,0.75,6,4,1,6,2,"control",68
"455","subRE2_6",2967,396171,10000,0.2,6,"see raw data",3,7,0.95,43,65,1,378055,"baseline",65,"route 2",14,124.6,"15:05:02",88,6,3,0.75,0.95,0.2,0.75,1,0.95,6,3,1,6,1,"control",68
"456","subRE2_6",3050,1179905,10000,0.2,6,"see raw data",3,7,0.95,35,65,1,1167889,"control",16,"route 1",14,123.333333333333,"15:05:02",88,6,3,0.75,0.2,0.95,-0.75,0,0.95,3,6,0,6,2,"control",68
"457","subRE2_6",3833,1193738,10000,0.2,5,"see raw data",4,8,0.35,40,24,1,1179905,"control",25,"route 2",14,124.291666666667,"15:05:02",88,6,1,0.15,0.35,0.2,0.15,1,0.35,5,4,1,5,2,"control",68
"458","subRE2_6",2550,408904,10000,0.2,5,"see raw data",4,8,0.35,48,24,1,396171,"baseline",24,"route 2",14,134,"15:05:02",88,6,1,0.15,0.35,0.2,0.15,1,0.35,5,4,1,5,1,"control",68
"459","subRE2_6",2266,426520,10000,0.95,3,"see raw data",6,9,0.35,54,24,1,408904,"baseline",66,"route 1",65,121.969696969697,"15:05:02",88,6,3,0.6,0.95,0.35,0.6,1,0.95,6,3,1,6,1,"control",68
"460","subRE2_6",2300,1205971,10000,0.95,3,"see raw data",6,9,0.35,43,24,1,1193738,"control",24,"route 2",65,123.625,"15:05:02",88,6,3,0.6,0.35,0.95,-0.6,0,0.95,3,6,0,6,2,"control",68
"461","subRE2_6",2416,439103,10000,0.35,3,"see raw data",4,10,0.2,58,14,1,426520,"baseline",24,"route 1",24,128.5,"15:05:02",88,6,1,0.15,0.35,0.2,0.15,1,0.35,4,3,1,4,1,"control",68
"462","subRE2_6",2316,1218221,10000,0.35,3,"see raw data",4,10,0.2,47,14,1,1205971,"control",25,"route 1",24,122.25,"15:05:02",88,6,1,0.15,0.35,0.2,0.15,1,0.35,4,3,1,4,2,"control",68
"463","subRE2_6",8416,480084,10000,0.55,7,"see raw data",5,11,0.75,7,51,1,457902,"baseline",52,"route 2",37,126.596153846154,"15:05:02",88,6,2,0.2,0.75,0.55,0.2,1,0.75,7,5,1,7,1,"control",68
"464","subRE2_6",1850,1248969,10000,0.55,7,"see raw data",5,11,0.75,7,51,1,1233737,"control",52,"route 2",37,121.134615384615,"15:05:02",88,6,2,0.2,0.75,0.55,0.2,1,0.75,7,5,1,7,2,"control",68
"465","subRE2_6",2300,496184,10000,0.2,6,"see raw data",4,12,0.75,13,51,1,480084,"baseline",53,"route 2",14,126.269230769231,"15:05:02",88,6,2,0.55,0.75,0.2,0.55,1,0.75,6,4,1,6,1,"control",68
"466","subRE2_6",1884,1264002,10000,0.2,6,"see raw data",4,12,0.75,13,51,1,1248969,"control",51,"route 2",14,121,"15:05:02",88,6,2,0.55,0.75,0.2,0.55,1,0.75,6,4,1,6,2,"control",68
"467","subRE2_6",2233,508550,10000,0.35,5,"see raw data",3,13,0.95,16,65,1,496184,"baseline",24,"route 1",24,124.166666666667,"15:05:02",88,6,2,0.6,0.35,0.95,-0.6,0,0.95,3,5,0,5,1,"control",68
"468","subRE2_6",2133,1276301,10000,0.35,5,"see raw data",3,13,0.95,16,65,1,1264002,"control",25,"route 1",24,126.64,"15:05:02",88,6,2,0.6,0.35,0.95,-0.6,0,0.95,3,5,0,5,2,"control",68
"469","subRE2_6",2750,520266,10000,0.95,8,"see raw data",1,14,0.2,24,14,1,508550,"baseline",15,"route 2",65,122.571428571429,"15:05:02",88,6,7,0.75,0.2,0.95,-0.75,0,0.95,8,1,1,8,1,"control",68
"470","subRE2_6",2050,1287118,10000,0.95,8,"see raw data",1,14,0.2,24,14,1,1276301,"control",14,"route 2",65,123.785714285714,"15:05:02",88,6,7,0.75,0.2,0.95,-0.75,0,0.95,8,1,1,8,2,"control",68
"471","subRE2_6",2383,536399,10000,0.75,3,"see raw data",4,15,0.35,28,24,1,520266,"baseline",51,"route 1",51,131.039215686275,"15:05:02",88,6,1,0.4,0.75,0.35,0.4,1,0.75,4,3,1,4,1,"control",68
"472","subRE2_6",3316,1300600,10000,0.75,3,"see raw data",4,15,0.35,27,24,1,1287118,"control",24,"route 2",51,128.458333333333,"15:05:02",88,6,1,0.4,0.35,0.75,-0.4,0,0.75,3,4,0,4,2,"control",68
"473","subRE2_6",2300,1311683,10000,0.55,5,"see raw data",6,16,0.2,32,14,1,1300600,"control",15,"route 2",37,123.333333333333,"15:05:02",88,6,1,0.35,0.2,0.55,-0.35,0,0.55,5,6,0,6,2,"control",68
"474","subRE2_6",8633,556581,10000,0.55,5,"see raw data",6,16,0.2,34,14,1,536399,"baseline",37,"route 1",37,121.621621621622,"15:05:02",88,6,1,0.35,0.55,0.2,0.35,1,0.55,6,5,1,6,1,"control",68
"475","subRE2_6",1600,1322050,10000,0.95,3,"see raw data",5,17,0.2,35,14,1,1311683,"control",15,"route 2",65,121.133333333333,"15:05:02",88,6,2,0.75,0.2,0.95,-0.75,0,0.95,3,5,0,5,2,"control",68
"476","subRE2_6",10717,576064,10000,0.95,3,"see raw data",5,17,0.2,37,14,1,556581,"baseline",14,"route 2",65,120.285714285714,"15:05:02",88,6,2,0.75,0.2,0.95,-0.75,0,0.95,3,5,0,5,1,"control",68
"477","subRE2_6",3134,589746,10000,0.95,4,"see raw data",5,18,0.35,41,24,1,576064,"baseline",24,"route 2",65,143.478260869565,"15:05:02",88,6,1,0.6,0.35,0.95,-0.6,0,0.95,4,5,0,5,1,"control",68
"478","subRE2_6",2383,1334599,10000,0.95,4,"see raw data",5,18,0.35,39,24,1,1322050,"control",25,"route 2",65,128,"15:05:02",88,6,1,0.6,0.35,0.95,-0.6,0,0.95,4,5,0,5,2,"control",68
"479","subRE2_6",2500,601196,10000,0.95,3,"see raw data",5,19,0.2,44,14,1,589746,"baseline",15,"route 2",65,128.866666666667,"15:05:02",88,6,2,0.75,0.2,0.95,-0.75,0,0.95,3,5,0,5,1,"control",68
"480","subRE2_6",1800,1345182,10000,0.95,3,"see raw data",5,19,0.2,42,14,1,1334599,"control",16,"route 2",65,123.333333333333,"15:05:02",88,6,2,0.75,0.2,0.95,-0.75,0,0.95,3,5,0,5,2,"control",68
"481","subRE2_6",1817,1358748,10000,0.95,4,"see raw data",7,20,0.55,46,37,1,1345182,"control",38,"route 2",65,120.605263157895,"15:05:02",88,6,3,0.4,0.55,0.95,-0.4,0,0.95,4,7,0,7,2,"control",68
"482","subRE2_6",3017,618745,10000,0.95,4,"see raw data",7,20,0.55,51,37,1,601196,"baseline",66,"route 1",65,113.909090909091,"15:05:02",88,6,3,0.4,0.95,0.55,0.4,1,0.95,7,4,1,7,1,"control",68
"483","subRE2_6",1984,633912,10000,0.75,6,"see raw data",7,21,0.2,58,14,1,618745,"baseline",52,"route 1",51,119.557692307692,"15:05:02",88,6,1,0.55,0.75,0.2,0.55,1,0.75,7,6,1,7,1,"control",68
"484","subRE2_6",2033,1374147,10000,0.75,6,"see raw data",7,21,0.2,53,14,1,1358748,"control",52,"route 1",51,121.788461538462,"15:05:02",88,6,1,0.55,0.75,0.2,0.55,1,0.75,7,6,1,7,2,"control",68
"485","subRE2_6",3467,663294,10000,0.95,3,"see raw data",4,22,0.55,3,37,1,647661,"baseline",37,"route 2",65,124.783783783784,"15:05:02",88,6,1,0.4,0.55,0.95,-0.4,0,0.95,3,4,0,4,1,"control",68
"486","subRE2_6",1900,1402746,10000,0.95,3,"see raw data",4,22,0.55,3,37,1,1389063,"control",38,"route 2",65,124.131578947368,"15:05:02",88,6,1,0.4,0.55,0.95,-0.4,0,0.95,3,4,0,4,2,"control",68
"487","subRE2_6",1950,1413629,10000,0.2,6,"see raw data",4,23,0.95,7,65,1,1402746,"control",14,"route 1",14,129.714285714286,"15:05:02",88,6,2,0.75,0.2,0.95,-0.75,0,0.95,4,6,0,6,2,"control",68
"488","subRE2_6",4033,676343,10000,0.2,6,"see raw data",4,23,0.95,7,65,1,663294,"baseline",15,"route 1",14,120,"15:05:02",88,6,2,0.75,0.2,0.95,-0.75,0,0.95,4,6,0,6,1,"control",68
"489","subRE2_6",1900,1425895,10000,0.35,7,"see raw data",3,24,0.55,10,37,1,1413629,"control",25,"route 1",24,120.791666666667,"15:05:02",88,6,4,0.2,0.35,0.55,-0.2,0,0.55,3,7,0,7,2,"control",68
"490","subRE2_6",2100,689809,10000,0.35,7,"see raw data",3,24,0.55,14,37,1,676343,"baseline",38,"route 2",24,116.216216216216,"15:05:02",88,6,4,0.2,0.55,0.35,0.2,1,0.55,7,3,1,7,1,"control",68
"491","subRE2_6",1850,701792,10000,0.35,6,"see raw data",7,25,0.2,21,14,1,689809,"baseline",25,"route 1",24,118.64,"15:05:02",88,6,1,0.15,0.35,0.2,0.15,1,0.35,7,6,1,7,1,"control",68
"492","subRE2_6",2483,1438562,10000,0.35,6,"see raw data",7,25,0.2,17,14,1,1425895,"control",25,"route 1",24,122.64,"15:05:02",88,6,1,0.15,0.35,0.2,0.15,1,0.35,7,6,1,7,2,"control",68
"493","subRE2_6",2200,1454111,10000,0.2,6,"see raw data",4,26,0.75,23,51,1,1438562,"control",52,"route 2",14,123.384615384615,"15:05:02",88,6,2,0.55,0.75,0.2,0.55,1,0.75,6,4,1,6,2,"control",68
"494","subRE2_6",2500,717641,10000,0.2,6,"see raw data",4,26,0.75,27,51,1,701792,"baseline",52,"route 2",14,121.461538461538,"15:05:02",88,6,2,0.55,0.75,0.2,0.55,1,0.75,6,4,1,6,1,"control",68
"495","subRE2_6",3533,1466644,10000,0.2,1,"see raw data",8,27,0.95,31,65,1,1454111,"control",16,"route 1",14,124.466666666667,"15:05:02",88,6,7,0.75,0.2,0.95,-0.75,0,0.95,8,1,1,8,2,"control",68
"496","subRE2_6",3050,729441,10000,0.2,1,"see raw data",8,27,0.95,35,65,1,717641,"baseline",14,"route 1",14,125,"15:05:02",88,6,7,0.75,0.2,0.95,-0.75,0,0.95,8,1,1,8,1,"control",68
"497","subRE2_6",5016,747790,10000,0.75,6,"see raw data",7,28,0.35,42,24,1,729441,"baseline",52,"route 1",51,122.442307692308,"15:05:02",88,6,1,0.4,0.75,0.35,0.4,1,0.75,7,6,1,7,1,"control",68
"498","subRE2_6",2117,1478726,10000,0.75,6,"see raw data",7,28,0.35,37,24,1,1466644,"control",25,"route 2",51,120.833333333333,"15:05:02",88,6,1,0.4,0.35,0.75,-0.4,0,0.75,6,7,0,7,2,"control",68
"499","subRE2_6",4117,762056,10000,0.35,4,"see raw data",3,29,0.95,45,65,1,747790,"baseline",25,"route 1",24,124.291666666667,"15:05:02",88,6,1,0.6,0.35,0.95,-0.6,0,0.95,3,4,0,4,1,"control",68
"500","subRE2_6",1683,1490542,10000,0.35,4,"see raw data",3,29,0.95,40,65,1,1478726,"control",25,"route 1",24,122.64,"15:05:02",88,6,1,0.6,0.35,0.95,-0.6,0,0.95,3,4,0,4,2,"control",68
"501","subRE2_6",2467,1502976,10000,0.35,5,"see raw data",6,30,0.2,46,14,1,1490542,"control",25,"route 1",24,121.36,"15:05:02",88,6,1,0.15,0.35,0.2,0.15,1,0.35,6,5,1,6,2,"control",68
"502","subRE2_6",2417,774639,10000,0.35,5,"see raw data",6,30,0.2,51,14,1,762056,"baseline",25,"route 1",24,123.32,"15:05:02",88,6,1,0.15,0.35,0.2,0.15,1,0.35,6,5,1,6,1,"control",68
"503","subRE2_6",2216,788405,10000,0.2,5,"see raw data",3,31,0.55,56,37,1,774639,"baseline",38,"route 2",14,122.054054054054,"15:05:02",88,6,2,0.35,0.55,0.2,0.35,1,0.55,5,3,1,5,1,"control",68
"504","subRE2_6",2183,1516925,10000,0.2,5,"see raw data",3,31,0.55,51,37,1,1502976,"control",39,"route 2",14,120.631578947368,"15:05:02",88,6,2,0.35,0.55,0.2,0.35,1,0.55,5,3,1,5,2,"control",68
"505","subRE2_6",2550,806338,10000,0.95,3,"see raw data",7,32,0.2,63,14,1,788405,"baseline",67,"route 1",65,122.641791044776,"15:05:02",88,6,4,0.75,0.95,0.2,0.75,1,0.95,7,3,1,7,1,"control",68
"506","subRE2_6",2167,1527874,10000,0.95,3,"see raw data",7,32,0.2,54,14,1,1516925,"control",14,"route 2",65,121.428571428571,"15:05:02",88,6,4,0.75,0.2,0.95,-0.75,0,0.95,3,7,0,7,2,"control",68
"507","subRE2_6",2867,1552207,10000,0.2,7,"see raw data",6,33,0.75,6,51,1,1539591,"control",14,"route 1",14,120.214285714286,"15:05:02",88,6,1,0.55,0.2,0.75,-0.55,0,0.75,6,7,0,7,2,"control",68
"508","subRE2_6",1833,831970,10000,0.2,7,"see raw data",6,33,0.75,7,51,1,816587,"baseline",51,"route 2",14,124.196078431373,"15:05:02",88,6,1,0.55,0.75,0.2,0.55,1,0.75,7,6,1,7,1,"control",68
"509","subRE2_6",2400,846136,10000,0.35,5,"see raw data",4,34,0.55,12,37,1,831970,"baseline",39,"route 2",24,122.789473684211,"15:05:02",88,6,1,0.2,0.55,0.35,0.2,1,0.55,5,4,1,5,1,"control",68
"510","subRE2_6",5200,1567773,10000,0.35,5,"see raw data",4,34,0.55,10,37,1,1552207,"control",25,"route 1",24,125.32,"15:05:02",88,6,1,0.2,0.35,0.55,-0.2,0,0.55,4,5,0,5,2,"control",68
"511","subRE2_6",3133,861235,10000,0.55,5,"see raw data",4,35,0.95,16,65,1,846136,"baseline",38,"route 1",37,126.763157894737,"15:05:02",88,6,1,0.4,0.55,0.95,-0.4,0,0.95,4,5,0,5,1,"control",68
"512","subRE2_6",2650,1582172,10000,0.55,5,"see raw data",4,35,0.95,14,65,1,1567773,"control",38,"route 1",37,122.972972972973,"15:05:02",88,6,1,0.4,0.55,0.95,-0.4,0,0.95,4,5,0,5,2,"control",68
"513","subRE2_6",3983,876968,10000,0.55,4,"see raw data",7,36,0.35,23,24,1,861235,"baseline",38,"route 1",37,121.473684210526,"15:05:02",88,6,3,0.2,0.55,0.35,0.2,1,0.55,7,4,1,7,1,"control",68
"514","subRE2_6",1783,1595505,10000,0.55,4,"see raw data",7,36,0.35,21,24,1,1582172,"control",38,"route 1",37,122.815789473684,"15:05:02",88,6,3,0.2,0.55,0.35,0.2,1,0.55,7,4,1,7,2,"control",68
"515","subRE2_6",2383,894568,10000,0.2,7,"see raw data",3,37,0.95,30,65,1,876968,"baseline",65,"route 2",14,126.661538461538,"15:05:02",88,6,4,0.75,0.95,0.2,0.75,1,0.95,7,3,1,7,1,"control",68
"516","subRE2_6",2167,1606421,10000,0.2,7,"see raw data",3,37,0.95,24,65,1,1595505,"control",14,"route 1",14,125,"15:05:02",88,6,4,0.75,0.2,0.95,-0.75,0,0.95,3,7,0,7,2,"control",68
"517","subRE2_6",5100,1622854,10000,0.95,3,"see raw data",6,38,0.55,27,37,1,1606421,"control",37,"route 2",65,121.162162162162,"15:05:02",88,6,3,0.4,0.55,0.95,-0.4,0,0.95,3,6,0,6,2,"control",68
"518","subRE2_6",2316,908833,10000,0.95,3,"see raw data",6,38,0.55,33,37,1,894568,"baseline",38,"route 2",65,131.131578947368,"15:05:02",88,6,3,0.4,0.55,0.95,-0.4,0,0.95,3,6,0,6,1,"control",68
"519","subRE2_6",7467,1640353,10000,0.35,6,"see raw data",4,39,0.95,31,65,1,1622854,"control",24,"route 1",24,120.791666666667,"15:05:02",88,6,2,0.6,0.35,0.95,-0.6,0,0.95,4,6,0,6,2,"control",68
"520","subRE2_6",3666,922666,10000,0.35,6,"see raw data",4,39,0.95,37,65,1,908833,"baseline",25,"route 1",24,124.291666666667,"15:05:02",88,6,2,0.6,0.35,0.95,-0.6,0,0.95,4,6,0,6,1,"control",68
"521","subRE2_6",2433,938466,10000,0.75,4,"see raw data",6,40,0.2,43,14,1,922666,"baseline",52,"route 1",51,124.176470588235,"15:05:02",88,6,2,0.55,0.75,0.2,0.55,1,0.75,6,4,1,6,1,"control",68
"522","subRE2_6",3300,1652403,10000,0.75,4,"see raw data",6,40,0.2,35,14,1,1640353,"control",16,"route 2",51,118.933333333333,"15:05:02",88,6,2,0.55,0.2,0.75,-0.55,0,0.75,4,6,0,6,2,"control",68
