"","uid","choice","trialReward1","trialEffortPropMax2","trialNo","trialEffort2","trialEffort1","trialEffortPropMax1","trialEndTime","pressCount","coinsRunningTotal","trialSuccess","effortTimeLimit","choiceRT","trialReward2","pressTimes","trialStartTime","condition","meanPressLag","studyStartTime","nTrials","ID","deltaReward","deltaEffort","effortChosen","effortUnchosen","deltaEffortSigned","higherEffChosen","highEffortOption","rewardChosen","rewardUnchosen","higherRewChosen","highRewardOption","taskNo","group","maxPressCount"
"1","subRE1_1","route 1",7,0.35,0,20,53,0.95,1139625,53,7,1,10000,1922,3,"see raw data",0,"planning",163.807692307692,"15:30:40",88,1,4,0.6,0.95,0.35,0.6,1,0.95,7,3,1,7,2,"planning",56
"2","subRE1_1","route 1",7,0.35,0,20,53,0.95,195579,53,7,1,10000,4906,3,"see raw data",174360,"baseline",171.264150943396,"15:30:40",88,1,4,0.6,0.95,0.35,0.6,1,0.95,7,3,1,7,1,"planning",56
"3","subRE1_1","route 1",7,0.75,1,42,53,0.95,1157511,53,14,1,10000,1858,4,"see raw data",1139625,"planning",177.692307692308,"15:30:40",88,1,3,0.2,0.95,0.75,0.2,1,0.95,7,4,1,7,2,"planning",56
"4","subRE1_1","route 1",7,0.75,1,42,53,0.95,214206,53,14,1,10000,2875,4,"see raw data",195579,"baseline",168.653846153846,"15:30:40",88,1,3,0.2,0.95,0.75,0.2,1,0.95,7,4,1,7,1,"planning",56
"5","subRE1_1","route 2",4,0.55,2,31,11,0.2,229360,32,20,1,10000,2766,6,"see raw data",214206,"baseline",176.903225806452,"15:30:40",88,1,2,0.35,0.55,0.2,0.35,1,0.55,6,4,1,6,1,"planning",56
"6","subRE1_1","route 2",4,0.55,2,31,11,0.2,1171598,31,20,1,10000,1895,6,"see raw data",1157511,"planning",174.709677419355,"15:30:40",88,1,2,0.35,0.55,0.2,0.35,1,0.55,6,4,1,6,2,"planning",56
"7","subRE1_1","route 1",5,0.2,3,11,42,0.75,1188267,42,25,1,10000,2002,4,"see raw data",1171598,"planning",187.975609756098,"15:30:40",88,1,1,0.55,0.75,0.2,0.55,1,0.75,5,4,1,5,2,"planning",56
"8","subRE1_1","route 2",5,0.2,3,11,42,0.75,244423,12,24,1,10000,4578,4,"see raw data",229360,"baseline",174.636363636364,"15:30:40",88,1,1,0.55,0.2,0.75,-0.55,0,0.75,4,5,0,5,1,"planning",56
"9","subRE1_1","route 2",5,0.95,4,53,42,0.75,263106,54,31,1,10000,2545,7,"see raw data",244423,"baseline",173.660377358491,"15:30:40",88,1,2,0.2,0.95,0.75,0.2,1,0.95,7,5,1,7,1,"planning",56
"10","subRE1_1","route 1",5,0.95,4,53,42,0.75,1212382,42,30,1,10000,9737,7,"see raw data",1188267,"planning",180.365853658537,"15:30:40",88,1,2,0.2,0.75,0.95,-0.2,0,0.95,5,7,0,7,2,"planning",56
"11","subRE1_1","route 1",6,0.55,5,31,53,0.95,1232319,54,36,1,10000,3781,3,"see raw data",1212382,"planning",174.207547169811,"15:30:40",88,1,3,0.4,0.95,0.55,0.4,1,0.95,6,3,1,6,2,"planning",56
"12","subRE1_1","route 1",6,0.55,5,31,53,0.95,282956,53,37,1,10000,3872,3,"see raw data",263106,"baseline",174.519230769231,"15:30:40",88,1,3,0.4,0.95,0.55,0.4,1,0.95,6,3,1,6,1,"planning",56
"13","subRE1_1","route 2",4,0.75,6,42,31,0.55,1250770,42,42,1,10000,4280,6,"see raw data",1232319,"planning",176.682926829268,"15:30:40",88,1,2,0.2,0.75,0.55,0.2,1,0.75,6,4,1,6,2,"planning",56
"14","subRE1_1","route 2",4,0.75,6,42,31,0.55,301861,42,43,1,10000,4348,6,"see raw data",282956,"baseline",182.333333333333,"15:30:40",88,1,2,0.2,0.75,0.55,0.2,1,0.75,6,4,1,6,1,"planning",56
"15","subRE1_1","route 2",3,0.95,7,53,11,0.2,1269163,54,48,1,10000,2204,6,"see raw data",1250770,"planning",176.301886792453,"15:30:40",88,1,3,0.75,0.95,0.2,0.75,1,0.95,6,3,1,6,2,"planning",56
"16","subRE1_1","route 2",3,0.95,7,53,11,0.2,320531,54,49,1,10000,2519,6,"see raw data",301861,"baseline",175.396226415094,"15:30:40",88,1,3,0.75,0.95,0.2,0.75,1,0.95,6,3,1,6,1,"planning",56
"17","subRE1_1","route 2",4,0.35,8,20,11,0.2,1280954,20,53,1,10000,1824,5,"see raw data",1269163,"planning",162.789473684211,"15:30:40",88,1,1,0.15,0.35,0.2,0.15,1,0.35,5,4,1,5,2,"planning",56
"18","subRE1_1","route 2",4,0.35,8,20,11,0.2,350725,20,54,1,10000,19813,5,"see raw data",320531,"baseline",174.736842105263,"15:30:40",88,1,1,0.15,0.35,0.2,0.15,1,0.35,5,4,1,5,1,"planning",56
"19","subRE1_1","route 1",6,0.35,9,20,53,0.95,1299430,54,59,1,10000,2642,3,"see raw data",1280954,"planning",170.11320754717,"15:30:40",88,1,3,0.6,0.95,0.35,0.6,1,0.95,6,3,1,6,2,"planning",56
"20","subRE1_1","route 1",6,0.35,9,20,53,0.95,368954,53,60,1,10000,1920,3,"see raw data",350725,"baseline",181.584905660377,"15:30:40",88,1,3,0.6,0.95,0.35,0.6,1,0.95,6,3,1,6,1,"planning",56
"21","subRE1_1","route 1",4,0.2,10,11,20,0.35,1313907,20,63,1,10000,4305,3,"see raw data",1299430,"planning",169.5,"15:30:40",88,1,1,0.15,0.35,0.2,0.15,1,0.35,4,3,1,4,2,"planning",56
"22","subRE1_1","route 1",4,0.2,10,11,20,0.35,380688,20,64,1,10000,1531,3,"see raw data",368954,"baseline",176.315789473684,"15:30:40",88,1,1,0.15,0.35,0.2,0.15,1,0.35,4,3,1,4,1,"planning",56
"23","subRE1_1","route 2",5,0.75,11,42,31,0.55,428454,42,7,1,10000,2672,7,"see raw data",411188,"baseline",178.190476190476,"15:30:40",88,1,2,0.2,0.75,0.55,0.2,1,0.75,7,5,1,7,1,"planning",56
"24","subRE1_1","route 2",5,0.75,11,42,31,0.55,1355329,43,7,1,10000,3171,7,"see raw data",1337973,"planning",175.071428571429,"15:30:40",88,1,2,0.2,0.75,0.55,0.2,1,0.75,7,5,1,7,2,"planning",56
"25","subRE1_1","route 2",4,0.75,12,42,11,0.2,444314,42,13,1,10000,1468,6,"see raw data",428454,"baseline",180.073170731707,"15:30:40",88,1,2,0.55,0.75,0.2,0.55,1,0.75,6,4,1,6,1,"planning",56
"26","subRE1_1","route 2",4,0.75,12,42,11,0.2,1371007,42,13,1,10000,1315,6,"see raw data",1355329,"planning",181.731707317073,"15:30:40",88,1,2,0.55,0.75,0.2,0.55,1,0.75,6,4,1,6,2,"planning",56
"27","subRE1_1","route 2",3,0.95,13,53,20,0.35,462975,53,18,1,10000,2513,5,"see raw data",444314,"baseline",176.826923076923,"15:30:40",88,1,2,0.6,0.95,0.35,0.6,1,0.95,5,3,1,5,1,"planning",56
"28","subRE1_1","route 2",3,0.95,13,53,20,0.35,1391937,53,18,1,10000,3250,5,"see raw data",1371007,"planning",177.576923076923,"15:30:40",88,1,2,0.6,0.95,0.35,0.6,1,0.95,5,3,1,5,2,"planning",56
"29","subRE1_1","route 2",1,0.2,14,11,53,0.95,473517,11,26,1,10000,1772,8,"see raw data",462975,"baseline",185.4,"15:30:40",88,1,7,0.75,0.2,0.95,-0.75,0,0.95,8,1,1,8,1,"planning",56
"30","subRE1_1","route 2",1,0.2,14,11,53,0.95,1404204,12,26,1,10000,3098,8,"see raw data",1391937,"planning",190.363636363636,"15:30:40",88,1,7,0.75,0.2,0.95,-0.75,0,0.95,8,1,1,8,2,"planning",56
"31","subRE1_1","route 1",4,0.35,15,20,42,0.75,490081,42,30,1,10000,2228,3,"see raw data",473517,"baseline",179.365853658537,"15:30:40",88,1,1,0.4,0.75,0.35,0.4,1,0.75,4,3,1,4,1,"planning",56
"32","subRE1_1","route 1",4,0.35,15,20,42,0.75,1420902,42,30,1,10000,2321,3,"see raw data",1404204,"planning",176.414634146341,"15:30:40",88,1,1,0.4,0.75,0.35,0.4,1,0.75,4,3,1,4,2,"planning",56
"33","subRE1_1","route 1",6,0.2,16,11,31,0.55,506626,31,36,1,10000,4202,5,"see raw data",490081,"baseline",181.233333333333,"15:30:40",88,1,1,0.35,0.55,0.2,0.35,1,0.55,6,5,1,6,1,"planning",56
"34","subRE1_1","route 1",6,0.2,16,11,31,0.55,1434663,31,36,1,10000,1559,5,"see raw data",1420902,"planning",177.466666666667,"15:30:40",88,1,1,0.35,0.55,0.2,0.35,1,0.55,6,5,1,6,2,"planning",56
"35","subRE1_1","route 1",5,0.2,17,11,53,0.95,525859,54,41,1,10000,2890,3,"see raw data",506626,"baseline",179.849056603774,"15:30:40",88,1,2,0.75,0.95,0.2,0.75,1,0.95,5,3,1,5,1,"planning",56
"36","subRE1_1","route 2",5,0.2,17,11,53,0.95,1445194,11,39,1,10000,1943,3,"see raw data",1434663,"planning",174.727272727273,"15:30:40",88,1,2,0.75,0.2,0.95,-0.75,0,0.95,3,5,0,5,2,"planning",56
"37","subRE1_1","route 1",5,0.35,18,20,53,0.95,543799,53,46,1,10000,1671,4,"see raw data",525859,"baseline",183.269230769231,"15:30:40",88,1,1,0.6,0.95,0.35,0.6,1,0.95,5,4,1,5,1,"planning",56
"38","subRE1_1","route 2",5,0.35,18,20,53,0.95,1456909,20,43,1,10000,1594,4,"see raw data",1445194,"planning",173.789473684211,"15:30:40",88,1,1,0.6,0.35,0.95,-0.6,0,0.95,4,5,0,5,2,"planning",56
"39","subRE1_1","route 1",5,0.2,19,11,53,0.95,567033,52,46,0,10000,1655,3,"see raw data",543799,"baseline",185.711538461538,"15:30:40",88,1,2,0.75,0.95,0.2,0.75,1,0.95,5,3,1,5,1,"planning",56
"40","subRE1_1","route 2",5,0.2,19,11,53,0.95,1469861,12,46,1,10000,4176,3,"see raw data",1456909,"planning",170.363636363636,"15:30:40",88,1,2,0.75,0.2,0.95,-0.75,0,0.95,3,5,0,5,2,"planning",56
"41","subRE1_1","route 1",7,0.55,20,31,53,0.95,1487832,53,53,1,10000,2031,4,"see raw data",1469861,"planning",174,"15:30:40",88,1,3,0.4,0.95,0.55,0.4,1,0.95,7,4,1,7,2,"planning",56
"42","subRE1_1","route 1",7,0.55,20,31,53,0.95,588084,54,53,1,10000,4867,4,"see raw data",567033,"baseline",176.018867924528,"15:30:40",88,1,3,0.4,0.95,0.55,0.4,1,0.95,7,4,1,7,1,"planning",56
"43","subRE1_1","route 1",7,0.2,21,11,42,0.75,1505406,42,60,1,10000,2782,6,"see raw data",1487832,"planning",191.707317073171,"15:30:40",88,1,1,0.55,0.75,0.2,0.55,1,0.75,7,6,1,7,2,"planning",56
"44","subRE1_1","route 1",7,0.2,21,11,42,0.75,604484,42,60,1,10000,1542,6,"see raw data",588084,"baseline",194.19512195122,"15:30:40",88,1,1,0.55,0.75,0.2,0.55,1,0.75,7,6,1,7,1,"planning",56
"45","subRE1_1","route 2",4,0.55,22,31,53,0.95,1538235,31,3,1,10000,2754,3,"see raw data",1523157,"planning",180.4,"15:30:40",88,1,1,0.4,0.55,0.95,-0.4,0,0.95,3,4,0,4,2,"planning",56
"46","subRE1_1","route 2",4,0.55,22,31,53,0.95,636738,31,3,1,10000,2803,3,"see raw data",621565,"baseline",180.966666666667,"15:30:40",88,1,1,0.4,0.55,0.95,-0.4,0,0.95,3,4,0,4,1,"planning",56
"47","subRE1_1","route 2",4,0.95,23,53,11,0.2,656629,54,9,1,10000,3737,6,"see raw data",636738,"baseline",176.452830188679,"15:30:40",88,1,2,0.75,0.95,0.2,0.75,1,0.95,6,4,1,6,1,"planning",56
"48","subRE1_1","route 1",4,0.95,23,53,11,0.2,1549360,11,7,1,10000,2554,6,"see raw data",1538235,"planning",158.6,"15:30:40",88,1,2,0.75,0.2,0.95,-0.75,0,0.95,4,6,0,6,2,"planning",56
"49","subRE1_1","route 2",3,0.55,24,31,20,0.35,671165,32,16,1,10000,1969,7,"see raw data",656629,"baseline",182.516129032258,"15:30:40",88,1,4,0.2,0.55,0.35,0.2,1,0.55,7,3,1,7,1,"planning",56
"50","subRE1_1","route 2",3,0.55,24,31,20,0.35,1562986,31,14,1,10000,1642,7,"see raw data",1549360,"planning",172.258064516129,"15:30:40",88,1,4,0.2,0.55,0.35,0.2,1,0.55,7,3,1,7,2,"planning",56
"51","subRE1_1","route 1",7,0.2,25,11,20,0.35,1577079,21,21,1,10000,3558,6,"see raw data",1562986,"planning",179.65,"15:30:40",88,1,1,0.15,0.35,0.2,0.15,1,0.35,7,6,1,7,2,"planning",56
"52","subRE1_1","route 1",7,0.2,25,11,20,0.35,685797,20,23,1,10000,4069,6,"see raw data",671165,"baseline",191.421052631579,"15:30:40",88,1,1,0.15,0.35,0.2,0.15,1,0.35,7,6,1,7,1,"planning",56
"53","subRE1_1","route 2",4,0.75,26,42,11,0.2,1594406,42,27,1,10000,2561,6,"see raw data",1577079,"planning",191.560975609756,"15:30:40",88,1,2,0.55,0.75,0.2,0.55,1,0.75,6,4,1,6,2,"planning",56
"54","subRE1_1","route 2",4,0.75,26,42,11,0.2,701882,42,29,1,10000,1546,6,"see raw data",685797,"baseline",184.09756097561,"15:30:40",88,1,2,0.55,0.75,0.2,0.55,1,0.75,6,4,1,6,1,"planning",56
"55","subRE1_1","route 1",8,0.95,27,53,11,0.2,1612524,11,35,1,10000,7740,1,"see raw data",1594406,"planning",213.9,"15:30:40",88,1,7,0.75,0.2,0.95,-0.75,0,0.95,8,1,1,8,2,"planning",56
"56","subRE1_1","route 1",8,0.95,27,53,11,0.2,719531,11,37,1,10000,8707,1,"see raw data",701882,"baseline",199.4,"15:30:40",88,1,7,0.75,0.2,0.95,-0.75,0,0.95,8,1,1,8,1,"planning",56
"57","subRE1_1","route 1",7,0.35,28,20,42,0.75,1631037,42,42,1,10000,3811,6,"see raw data",1612524,"planning",190.414634146341,"15:30:40",88,1,1,0.4,0.75,0.35,0.4,1,0.75,7,6,1,7,2,"planning",56
"58","subRE1_1","route 1",7,0.35,28,20,42,0.75,736416,43,44,1,10000,1870,6,"see raw data",719531,"baseline",194.928571428571,"15:30:40",88,1,1,0.4,0.75,0.35,0.4,1,0.75,7,6,1,7,1,"planning",56
"59","subRE1_1","route 1",3,0.95,29,53,20,0.35,753183,20,47,1,10000,6546,4,"see raw data",736416,"baseline",178.157894736842,"15:30:40",88,1,1,0.6,0.35,0.95,-0.6,0,0.95,3,4,0,4,1,"planning",56
"60","subRE1_1","route 1",3,0.95,29,53,20,0.35,1644413,20,45,1,10000,3063,4,"see raw data",1631037,"planning",179.05,"15:30:40",88,1,1,0.6,0.35,0.95,-0.6,0,0.95,3,4,0,4,2,"planning",56
"61","subRE1_1","route 1",6,0.2,30,11,20,0.35,769445,20,53,1,10000,6168,5,"see raw data",753183,"baseline",172.65,"15:30:40",88,1,1,0.15,0.35,0.2,0.15,1,0.35,6,5,1,6,1,"planning",56
"62","subRE1_1","route 1",6,0.2,30,11,20,0.35,1658082,21,51,1,10000,3312,5,"see raw data",1644413,"planning",175.65,"15:30:40",88,1,1,0.15,0.35,0.2,0.15,1,0.35,6,5,1,6,2,"planning",56
"63","subRE1_1","route 2",3,0.55,31,31,11,0.2,1697784,31,56,1,10000,27322,5,"see raw data",1658082,"planning",182.266666666667,"15:30:40",88,1,2,0.35,0.55,0.2,0.35,1,0.55,5,3,1,5,2,"planning",56
"64","subRE1_1","route 2",3,0.55,31,31,11,0.2,784938,31,58,1,10000,2485,5,"see raw data",769445,"baseline",190.366666666667,"15:30:40",88,1,2,0.35,0.55,0.2,0.35,1,0.55,5,3,1,5,1,"planning",56
"65","subRE1_1","route 1",7,0.2,32,11,53,0.95,810266,50,58,0,10000,3750,3,"see raw data",784938,"baseline",191.122448979592,"15:30:40",88,1,4,0.75,0.95,0.2,0.75,1,0.95,7,3,1,7,1,"planning",56
"66","subRE1_1","route 1",7,0.2,32,11,53,0.95,1716579,53,63,1,10000,2612,3,"see raw data",1697784,"planning",176.346153846154,"15:30:40",88,1,4,0.75,0.95,0.2,0.75,1,0.95,7,3,1,7,2,"planning",56
"67","subRE1_1","route 1",6,0.75,33,42,11,0.2,1745899,12,6,1,10000,1445,7,"see raw data",1735915,"planning",157.727272727273,"15:30:40",88,1,1,0.55,0.2,0.75,-0.55,0,0.75,6,7,0,7,2,"planning",56
"68","subRE1_1","route 2",6,0.75,33,42,11,0.2,842892,43,7,1,10000,2809,7,"see raw data",825523,"baseline",181.833333333333,"15:30:40",88,1,1,0.55,0.75,0.2,0.55,1,0.75,7,6,1,7,1,"planning",56
"69","subRE1_1","route 1",4,0.55,34,31,20,0.35,1758993,20,10,1,10000,2535,5,"see raw data",1745899,"planning",184.7,"15:30:40",88,1,1,0.2,0.35,0.55,-0.2,0,0.55,4,5,0,5,2,"planning",56
"70","subRE1_1","route 2",4,0.55,34,31,20,0.35,857211,31,12,1,10000,1516,5,"see raw data",842892,"baseline",192.387096774194,"15:30:40",88,1,1,0.2,0.55,0.35,0.2,1,0.55,5,4,1,5,1,"planning",56
"71","subRE1_1","route 2",4,0.95,35,53,31,0.55,874992,53,17,1,10000,1597,5,"see raw data",857211,"baseline",179.173076923077,"15:30:40",88,1,1,0.4,0.95,0.55,0.4,1,0.95,5,4,1,5,1,"planning",56
"72","subRE1_1","route 1",4,0.95,35,53,31,0.55,1773048,31,14,1,10000,1704,5,"see raw data",1758993,"planning",181.3,"15:30:40",88,1,1,0.4,0.55,0.95,-0.4,0,0.95,4,5,0,5,2,"planning",56
"73","subRE1_1","route 1",7,0.35,36,20,31,0.55,1787533,31,21,1,10000,2408,4,"see raw data",1773048,"planning",172,"15:30:40",88,1,3,0.2,0.55,0.35,0.2,1,0.55,7,4,1,7,2,"planning",56
"74","subRE1_1","route 1",7,0.35,36,20,31,0.55,890423,31,24,1,10000,3089,4,"see raw data",874992,"baseline",178.1,"15:30:40",88,1,3,0.2,0.55,0.35,0.2,1,0.55,7,4,1,7,1,"planning",56
"75","subRE1_1","route 2",3,0.95,37,53,11,0.2,910626,53,31,1,10000,2578,7,"see raw data",890423,"baseline",175.519230769231,"15:30:40",88,1,4,0.75,0.95,0.2,0.75,1,0.95,7,3,1,7,1,"planning",56
"76","subRE1_1","route 1",3,0.95,37,53,11,0.2,1799255,11,24,1,10000,1565,7,"see raw data",1787533,"planning",172.2,"15:30:40",88,1,4,0.75,0.2,0.95,-0.75,0,0.95,3,7,0,7,2,"planning",56
"77","subRE1_1","route 1",6,0.55,38,31,53,0.95,931158,53,37,1,10000,4285,3,"see raw data",910626,"baseline",179.22641509434,"15:30:40",88,1,3,0.4,0.95,0.55,0.4,1,0.95,6,3,1,6,1,"planning",56
"78","subRE1_1","route 2",6,0.55,38,31,53,0.95,1813457,31,27,1,10000,1360,3,"see raw data",1799255,"planning",179.166666666667,"15:30:40",88,1,3,0.4,0.55,0.95,-0.4,0,0.95,3,6,0,6,2,"planning",56
"79","subRE1_1","route 2",4,0.95,39,53,20,0.35,955476,46,37,0,10000,2733,6,"see raw data",931158,"baseline",207.826086956522,"15:30:40",88,1,2,0.6,0.95,0.35,0.6,1,0.95,6,4,1,6,1,"planning",56
"80","subRE1_1","route 1",4,0.95,39,53,20,0.35,1826064,20,31,1,10000,2597,6,"see raw data",1813457,"planning",167.210526315789,"15:30:40",88,1,2,0.6,0.35,0.95,-0.6,0,0.95,4,6,0,6,2,"planning",56
"81","subRE1_1","route 2",6,0.2,40,11,42,0.75,1837196,11,35,1,10000,2361,4,"see raw data",1826064,"planning",181.636363636364,"15:30:40",88,1,2,0.55,0.2,0.75,-0.55,0,0.75,4,6,0,6,2,"planning",56
"82","subRE1_1","route 1",6,0.2,40,11,42,0.75,971282,42,43,1,10000,1623,4,"see raw data",955476,"baseline",177.170731707317,"15:30:40",88,1,2,0.55,0.75,0.2,0.55,1,0.75,6,4,1,6,1,"planning",56
"83","subRE1_1","route 2",4,0.95,41,53,42,0.75,1855861,53,41,1,10000,2354,6,"see raw data",1837196,"planning",177.867924528302,"15:30:40",88,1,2,0.2,0.95,0.75,0.2,1,0.95,6,4,1,6,2,"planning",56
"84","subRE1_1","route 1",4,0.95,41,53,42,0.75,989751,42,47,1,10000,4111,6,"see raw data",971282,"baseline",181.190476190476,"15:30:40",88,1,2,0.2,0.75,0.95,-0.2,0,0.95,4,6,0,6,1,"planning",56
"85","subRE1_1","route 2",5,0.55,42,31,11,0.2,1003831,31,54,1,10000,1907,7,"see raw data",989751,"baseline",179.566666666667,"15:30:40",88,1,2,0.35,0.55,0.2,0.35,1,0.55,7,5,1,7,1,"planning",56
"86","subRE1_1","route 1",5,0.55,42,31,11,0.2,1868362,11,46,1,10000,4072,7,"see raw data",1855861,"planning",150.545454545455,"15:30:40",88,1,2,0.35,0.2,0.55,-0.35,0,0.55,5,7,0,7,2,"planning",56
"87","subRE1_1","route 1",6,0.95,43,53,20,0.35,1017876,20,60,1,10000,3627,7,"see raw data",1003831,"baseline",179.7,"15:30:40",88,1,1,0.6,0.35,0.95,-0.6,0,0.95,6,7,0,7,1,"planning",56
"88","subRE1_1","route 1",6,0.95,43,53,20,0.35,1880225,21,52,1,10000,1735,7,"see raw data",1868362,"planning",168.2,"15:30:40",88,1,1,0.6,0.35,0.95,-0.6,0,0.95,6,7,0,7,2,"planning",56
"89","subRE1_2","route 1",7,0.35,0,20,53,0.95,1039771,54,7,1,10000,2550,3,"see raw data",0,"control",161.283018867925,"15:34:36",88,2,4,0.6,0.95,0.35,0.6,1,0.95,7,3,1,7,2,"control",56
"90","subRE1_2","route 2",7,0.35,0,20,53,0.95,202229,21,3,1,10000,6032,3,"see raw data",185433,"baseline",170.85,"15:34:36",88,2,4,0.6,0.35,0.95,-0.6,0,0.95,3,7,0,7,1,"control",56
"91","subRE1_2","route 1",7,0.75,1,42,53,0.95,1056835,54,14,1,10000,1666,4,"see raw data",1039771,"control",160.320754716981,"15:34:36",88,2,3,0.2,0.95,0.75,0.2,1,0.95,7,4,1,7,2,"control",56
"92","subRE1_2","route 1",7,0.75,1,42,53,0.95,221659,53,10,1,10000,3450,4,"see raw data",202229,"baseline",170.557692307692,"15:34:36",88,2,3,0.2,0.95,0.75,0.2,1,0.95,7,4,1,7,1,"control",56
"93","subRE1_2","route 2",4,0.55,2,31,11,0.2,1070133,31,20,1,10000,1716,6,"see raw data",1056835,"control",159.129032258065,"15:34:36",88,2,2,0.35,0.55,0.2,0.35,1,0.55,6,4,1,6,2,"control",56
"94","subRE1_2","route 1",4,0.55,2,31,11,0.2,235874,11,14,1,10000,5266,6,"see raw data",221659,"baseline",175.727272727273,"15:34:36",88,2,2,0.35,0.2,0.55,-0.35,0,0.55,4,6,0,6,1,"control",56
"95","subRE1_2","route 2",5,0.2,3,11,42,0.75,249922,12,18,1,10000,5099,4,"see raw data",235874,"baseline",172.636363636364,"15:34:36",88,2,1,0.55,0.2,0.75,-0.55,0,0.75,4,5,0,5,1,"control",56
"96","subRE1_2","route 1",5,0.2,3,11,42,0.75,1085515,43,25,1,10000,1799,4,"see raw data",1070133,"control",163.047619047619,"15:34:36",88,2,1,0.55,0.75,0.2,0.55,1,0.75,5,4,1,5,2,"control",56
"97","subRE1_2","route 2",5,0.95,4,53,42,0.75,1102730,53,32,1,10000,1665,7,"see raw data",1085515,"control",166.981132075472,"15:34:36",88,2,2,0.2,0.95,0.75,0.2,1,0.95,7,5,1,7,2,"control",56
"98","subRE1_2","route 2",5,0.95,4,53,42,0.75,268603,53,25,1,10000,2750,7,"see raw data",249922,"baseline",171.641509433962,"15:34:36",88,2,2,0.2,0.95,0.75,0.2,1,0.95,7,5,1,7,1,"control",56
"99","subRE1_2","route 1",6,0.55,5,31,53,0.95,287918,53,31,1,10000,3019,3,"see raw data",268603,"baseline",178.867924528302,"15:34:36",88,2,3,0.4,0.95,0.55,0.4,1,0.95,6,3,1,6,1,"control",56
"100","subRE1_2","route 1",6,0.55,5,31,53,0.95,1119894,54,38,1,10000,1750,3,"see raw data",1102730,"control",163.811320754717,"15:34:36",88,2,3,0.4,0.95,0.55,0.4,1,0.95,6,3,1,6,2,"control",56
"101","subRE1_2","route 2",4,0.75,6,42,31,0.55,1135175,42,44,1,10000,1733,6,"see raw data",1119894,"control",164.285714285714,"15:34:36",88,2,2,0.2,0.75,0.55,0.2,1,0.75,6,4,1,6,2,"control",56
"102","subRE1_2","route 2",4,0.75,6,42,31,0.55,305199,42,37,1,10000,3333,6,"see raw data",287918,"baseline",171.09756097561,"15:34:36",88,2,2,0.2,0.75,0.55,0.2,1,0.75,6,4,1,6,1,"control",56
"103","subRE1_2","route 2",3,0.95,7,53,11,0.2,329278,51,37,0,10000,2499,6,"see raw data",305199,"baseline",187.98,"15:34:36",88,2,3,0.75,0.95,0.2,0.75,1,0.95,6,3,1,6,1,"control",56
"104","subRE1_2","route 2",3,0.95,7,53,11,0.2,1152574,53,50,1,10000,1650,6,"see raw data",1135175,"control",172.423076923077,"15:34:36",88,2,3,0.75,0.95,0.2,0.75,1,0.95,6,3,1,6,2,"control",56
"105","subRE1_2","route 2",4,0.35,8,20,11,0.2,1164205,21,55,1,10000,1666,5,"see raw data",1152574,"control",157.45,"15:34:36",88,2,1,0.15,0.35,0.2,0.15,1,0.35,5,4,1,5,2,"control",56
"106","subRE1_2","route 2",4,0.35,8,20,11,0.2,342844,20,42,1,10000,3183,5,"see raw data",329278,"baseline",169.15,"15:34:36",88,2,1,0.15,0.35,0.2,0.15,1,0.35,5,4,1,5,1,"control",56
"107","subRE1_2","route 1",6,0.35,9,20,53,0.95,1181403,53,61,1,10000,1666,3,"see raw data",1164205,"control",168.188679245283,"15:34:36",88,2,3,0.6,0.95,0.35,0.6,1,0.95,6,3,1,6,2,"control",56
"108","subRE1_2","route 1",6,0.35,9,20,53,0.95,360941,53,48,1,10000,2316,3,"see raw data",342844,"baseline",173.038461538462,"15:34:36",88,2,3,0.6,0.95,0.35,0.6,1,0.95,6,3,1,6,1,"control",56
"109","subRE1_2","route 1",4,0.2,10,11,20,0.35,1193085,20,65,1,10000,1716,3,"see raw data",1181403,"control",161.65,"15:34:36",88,2,1,0.15,0.35,0.2,0.15,1,0.35,4,3,1,4,2,"control",56
"110","subRE1_2","route 1",4,0.2,10,11,20,0.35,373539,21,52,1,10000,2433,3,"see raw data",360941,"baseline",165.666666666667,"15:34:36",88,2,1,0.15,0.35,0.2,0.15,1,0.35,4,3,1,4,1,"control",56
"111","subRE1_2","route 2",5,0.75,11,42,31,0.55,417817,43,7,1,10000,2233,7,"see raw data",401802,"baseline",162.666666666667,"15:34:36",88,2,2,0.2,0.75,0.55,0.2,1,0.75,7,5,1,7,1,"control",56
"112","subRE1_2","route 2",5,0.75,11,42,31,0.55,1225614,43,7,1,10000,1813,7,"see raw data",1210216,"control",161.071428571429,"15:34:36",88,2,2,0.2,0.75,0.55,0.2,1,0.75,7,5,1,7,2,"control",56
"113","subRE1_2","route 2",4,0.75,12,42,11,0.2,1241095,42,13,1,10000,1683,6,"see raw data",1225614,"control",171.02380952381,"15:34:36",88,2,2,0.55,0.75,0.2,0.55,1,0.75,6,4,1,6,2,"control",56
"114","subRE1_2","route 2",4,0.75,12,42,11,0.2,434432,43,13,1,10000,2650,6,"see raw data",417817,"baseline",167.047619047619,"15:34:36",88,2,2,0.55,0.75,0.2,0.55,1,0.75,6,4,1,6,1,"control",56
"115","subRE1_2","route 2",3,0.95,13,53,20,0.35,452830,54,18,1,10000,2836,5,"see raw data",434432,"baseline",163.207547169811,"15:34:36",88,2,2,0.6,0.95,0.35,0.6,1,0.95,5,3,1,5,1,"control",56
"116","subRE1_2","route 2",3,0.95,13,53,20,0.35,1258376,53,18,1,10000,1716,5,"see raw data",1241095,"control",168.22641509434,"15:34:36",88,2,2,0.6,0.95,0.35,0.6,1,0.95,5,3,1,5,2,"control",56
"117","subRE1_2","route 2",1,0.2,14,11,53,0.95,465445,12,26,1,10000,3633,8,"see raw data",452830,"baseline",161.083333333333,"15:34:36",88,2,7,0.75,0.2,0.95,-0.75,0,0.95,8,1,1,8,1,"control",56
"118","subRE1_2","route 2",1,0.2,14,11,53,0.95,1268708,11,26,1,10000,1768,8,"see raw data",1258376,"control",165.090909090909,"15:34:36",88,2,7,0.75,0.2,0.95,-0.75,0,0.95,8,1,1,8,2,"control",56
"119","subRE1_2","route 1",4,0.35,15,20,42,0.75,481726,42,30,1,10000,2533,3,"see raw data",465445,"baseline",165.095238095238,"15:34:36",88,2,1,0.4,0.75,0.35,0.4,1,0.75,4,3,1,4,1,"control",56
"120","subRE1_2","route 1",4,0.35,15,20,42,0.75,1284489,42,30,1,10000,1800,3,"see raw data",1268708,"control",174.390243902439,"15:34:36",88,2,1,0.4,0.75,0.35,0.4,1,0.75,4,3,1,4,2,"control",56
"121","subRE1_2","route 1",6,0.2,16,11,31,0.55,1298222,31,36,1,10000,1984,5,"see raw data",1284489,"control",165.58064516129,"15:34:36",88,2,1,0.35,0.55,0.2,0.35,1,0.55,6,5,1,6,2,"control",56
"122","subRE1_2","route 1",6,0.2,16,11,31,0.55,496191,32,36,1,10000,2450,5,"see raw data",481726,"baseline",166.645161290323,"15:34:36",88,2,1,0.35,0.55,0.2,0.35,1,0.55,6,5,1,6,1,"control",56
"123","subRE1_2","route 1",5,0.2,17,11,53,0.95,1315819,53,41,1,10000,1833,3,"see raw data",1298222,"control",170.807692307692,"15:34:36",88,2,2,0.75,0.95,0.2,0.75,1,0.95,5,3,1,5,2,"control",56
"124","subRE1_2","route 1",5,0.2,17,11,53,0.95,514205,53,41,1,10000,2251,3,"see raw data",496191,"baseline",167.849056603774,"15:34:36",88,2,2,0.75,0.95,0.2,0.75,1,0.95,5,3,1,5,1,"control",56
"125","subRE1_2","route 1",5,0.35,18,20,53,0.95,1332934,53,46,1,10000,1550,4,"see raw data",1315819,"control",168.22641509434,"15:34:36",88,2,1,0.6,0.95,0.35,0.6,1,0.95,5,4,1,5,2,"control",56
"126","subRE1_2","route 1",5,0.35,18,20,53,0.95,532003,53,46,1,10000,2217,4,"see raw data",514205,"baseline",167.943396226415,"15:34:36",88,2,1,0.6,0.95,0.35,0.6,1,0.95,5,4,1,5,1,"control",56
"127","subRE1_2","route 1",5,0.2,19,11,53,0.95,549933,54,51,1,10000,1966,3,"see raw data",532003,"baseline",173.22641509434,"15:34:36",88,2,2,0.75,0.95,0.2,0.75,1,0.95,5,3,1,5,1,"control",56
"128","subRE1_2","route 1",5,0.2,19,11,53,0.95,1350481,53,51,1,10000,1802,3,"see raw data",1332934,"control",172,"15:34:36",88,2,2,0.75,0.95,0.2,0.75,1,0.95,5,3,1,5,2,"control",56
"129","subRE1_2","route 1",7,0.55,20,31,53,0.95,567531,53,58,1,10000,1766,4,"see raw data",549933,"baseline",172.301886792453,"15:34:36",88,2,3,0.4,0.95,0.55,0.4,1,0.95,7,4,1,7,1,"control",56
"130","subRE1_2","route 1",7,0.55,20,31,53,0.95,1367813,53,58,1,10000,1766,4,"see raw data",1350481,"control",169.211538461538,"15:34:36",88,2,3,0.4,0.95,0.55,0.4,1,0.95,7,4,1,7,2,"control",56
"131","subRE1_2","route 1",7,0.2,21,11,42,0.75,583046,42,65,1,10000,1950,6,"see raw data",567531,"baseline",165.452380952381,"15:34:36",88,2,1,0.55,0.75,0.2,0.55,1,0.75,7,6,1,7,1,"control",56
"132","subRE1_2","route 1",7,0.2,21,11,42,0.75,1383244,43,65,1,10000,1833,6,"see raw data",1367813,"control",164.261904761905,"15:34:36",88,2,1,0.55,0.75,0.2,0.55,1,0.75,7,6,1,7,2,"control",56
"133","subRE1_2","route 1",4,0.55,22,31,53,0.95,1413707,54,4,1,10000,1949,3,"see raw data",1396225,"control",166.018867924528,"15:34:36",88,2,1,0.4,0.95,0.55,0.4,1,0.95,4,3,1,4,2,"control",56
"134","subRE1_2","route 2",4,0.55,22,31,53,0.95,620492,31,3,1,10000,3316,3,"see raw data",605176,"baseline",167.2,"15:34:36",88,2,1,0.4,0.55,0.95,-0.4,0,0.95,3,4,0,4,1,"control",56
"135","subRE1_2","route 2",4,0.95,23,53,11,0.2,637955,54,9,1,10000,2084,6,"see raw data",620492,"baseline",162.547169811321,"15:34:36",88,2,2,0.75,0.95,0.2,0.75,1,0.95,6,4,1,6,1,"control",56
"136","subRE1_2","route 2",4,0.95,23,53,11,0.2,1431122,53,10,1,10000,1816,6,"see raw data",1413707,"control",167.22641509434,"15:34:36",88,2,2,0.75,0.95,0.2,0.75,1,0.95,6,4,1,6,2,"control",56
"137","subRE1_2","route 2",3,0.55,24,31,20,0.35,652087,32,16,1,10000,2151,7,"see raw data",637955,"baseline",161.258064516129,"15:34:36",88,2,4,0.2,0.55,0.35,0.2,1,0.55,7,3,1,7,1,"control",56
"138","subRE1_2","route 2",3,0.55,24,31,20,0.35,1444653,31,17,1,10000,1766,7,"see raw data",1431122,"control",162.733333333333,"15:34:36",88,2,4,0.2,0.55,0.35,0.2,1,0.55,7,3,1,7,2,"control",56
"139","subRE1_2","route 1",7,0.2,25,11,20,0.35,664020,20,23,1,10000,1949,6,"see raw data",652087,"baseline",159.15,"15:34:36",88,2,1,0.15,0.35,0.2,0.15,1,0.35,7,6,1,7,1,"control",56
"140","subRE1_2","route 1",7,0.2,25,11,20,0.35,1456551,21,24,1,10000,1933,6,"see raw data",1444653,"control",160.8,"15:34:36",88,2,1,0.15,0.35,0.2,0.15,1,0.35,7,6,1,7,2,"control",56
"141","subRE1_2","route 2",4,0.75,26,42,11,0.2,679434,42,29,1,10000,1849,6,"see raw data",664020,"baseline",161.5,"15:34:36",88,2,2,0.55,0.75,0.2,0.55,1,0.75,6,4,1,6,1,"control",56
"142","subRE1_2","route 2",4,0.75,26,42,11,0.2,1471983,42,30,1,10000,1683,6,"see raw data",1456551,"control",167.761904761905,"15:34:36",88,2,2,0.55,0.75,0.2,0.55,1,0.75,6,4,1,6,2,"control",56
"143","subRE1_2","route 1",8,0.95,27,53,11,0.2,1482767,12,38,1,10000,2216,1,"see raw data",1471983,"control",158.333333333333,"15:34:36",88,2,7,0.75,0.2,0.95,-0.75,0,0.95,8,1,1,8,2,"control",56
"144","subRE1_2","route 1",8,0.95,27,53,11,0.2,689934,11,37,1,10000,1916,1,"see raw data",679434,"baseline",162.181818181818,"15:34:36",88,2,7,0.75,0.2,0.95,-0.75,0,0.95,8,1,1,8,1,"control",56
"145","subRE1_2","route 1",7,0.35,28,20,42,0.75,705380,42,44,1,10000,1900,6,"see raw data",689934,"baseline",163.452380952381,"15:34:36",88,2,1,0.4,0.75,0.35,0.4,1,0.75,7,6,1,7,1,"control",56
"146","subRE1_2","route 1",7,0.35,28,20,42,0.75,1498129,42,45,1,10000,1816,6,"see raw data",1482767,"control",165.414634146341,"15:34:36",88,2,1,0.4,0.75,0.35,0.4,1,0.75,7,6,1,7,2,"control",56
"147","subRE1_2","route 2",3,0.95,29,53,20,0.35,1515427,53,49,1,10000,1768,4,"see raw data",1498129,"control",168.528301886792,"15:34:36",88,2,1,0.6,0.95,0.35,0.6,1,0.95,4,3,1,4,2,"control",56
"148","subRE1_2","route 2",3,0.95,29,53,20,0.35,723194,53,48,1,10000,1833,4,"see raw data",705380,"baseline",171.096153846154,"15:34:36",88,2,1,0.6,0.95,0.35,0.6,1,0.95,4,3,1,4,1,"control",56
"149","subRE1_2","route 1",6,0.2,30,11,20,0.35,1526959,20,55,1,10000,1783,5,"see raw data",1515427,"control",158.3,"15:34:36",88,2,1,0.15,0.35,0.2,0.15,1,0.35,6,5,1,6,2,"control",56
"150","subRE1_2","route 1",6,0.2,30,11,20,0.35,735043,21,54,1,10000,1866,5,"see raw data",723194,"baseline",159.52380952381,"15:34:36",88,2,1,0.15,0.35,0.2,0.15,1,0.35,6,5,1,6,1,"control",56
"151","subRE1_2","route 2",3,0.55,31,31,11,0.2,748825,31,59,1,10000,1817,5,"see raw data",735043,"baseline",163.266666666667,"15:34:36",88,2,2,0.35,0.55,0.2,0.35,1,0.55,5,3,1,5,1,"control",56
"152","subRE1_2","route 2",3,0.55,31,31,11,0.2,1540991,31,60,1,10000,2049,5,"see raw data",1526959,"control",167.166666666667,"15:34:36",88,2,2,0.35,0.55,0.2,0.35,1,0.55,5,3,1,5,2,"control",56
"153","subRE1_2","route 1",7,0.2,32,11,53,0.95,1558089,53,67,1,10000,1716,3,"see raw data",1540991,"control",165.038461538462,"15:34:36",88,2,4,0.75,0.95,0.2,0.75,1,0.95,7,3,1,7,2,"control",56
"154","subRE1_2","route 1",7,0.2,32,11,53,0.95,766156,53,66,1,10000,1801,3,"see raw data",748825,"baseline",166.596153846154,"15:34:36",88,2,4,0.75,0.95,0.2,0.75,1,0.95,7,3,1,7,1,"control",56
"155","subRE1_2","route 1",6,0.75,33,42,11,0.2,792253,11,6,1,10000,2200,7,"see raw data",780671,"baseline",213.636363636364,"15:34:36",88,2,1,0.55,0.2,0.75,-0.55,0,0.75,6,7,0,7,1,"control",56
"156","subRE1_2","route 2",6,0.75,33,42,11,0.2,1589701,42,7,1,10000,2717,7,"see raw data",1573419,"control",163.071428571429,"15:34:36",88,2,1,0.55,0.75,0.2,0.55,1,0.75,7,6,1,7,2,"control",56
"157","subRE1_2","route 2",4,0.55,34,31,20,0.35,1603015,31,12,1,10000,1533,5,"see raw data",1589701,"control",163.967741935484,"15:34:36",88,2,1,0.2,0.55,0.35,0.2,1,0.55,5,4,1,5,2,"control",56
"158","subRE1_2","route 2",4,0.55,34,31,20,0.35,805917,32,11,1,10000,1883,5,"see raw data",792253,"baseline",159.645161290323,"15:34:36",88,2,1,0.2,0.55,0.35,0.2,1,0.55,5,4,1,5,1,"control",56
"159","subRE1_2","route 2",4,0.95,35,53,31,0.55,823232,54,16,1,10000,1750,5,"see raw data",805917,"baseline",164.452830188679,"15:34:36",88,2,1,0.4,0.95,0.55,0.4,1,0.95,5,4,1,5,1,"control",56
"160","subRE1_2","route 2",4,0.95,35,53,31,0.55,1619980,54,17,1,10000,1600,5,"see raw data",1603015,"control",163.490566037736,"15:34:36",88,2,1,0.4,0.95,0.55,0.4,1,0.95,5,4,1,5,2,"control",56
"161","subRE1_2","route 1",7,0.35,36,20,31,0.55,836898,31,23,1,10000,1883,4,"see raw data",823232,"baseline",162.322580645161,"15:34:36",88,2,3,0.2,0.55,0.35,0.2,1,0.55,7,4,1,7,1,"control",56
"162","subRE1_2","route 1",7,0.35,36,20,31,0.55,1633545,31,24,1,10000,1767,4,"see raw data",1619980,"control",164.516129032258,"15:34:36",88,2,3,0.2,0.55,0.35,0.2,1,0.55,7,4,1,7,2,"control",56
"163","subRE1_2","route 2",3,0.95,37,53,11,0.2,1651060,53,31,1,10000,1549,7,"see raw data",1633545,"control",173.245283018868,"15:34:36",88,2,4,0.75,0.95,0.2,0.75,1,0.95,7,3,1,7,2,"control",56
"164","subRE1_2","route 2",3,0.95,37,53,11,0.2,853895,53,30,1,10000,1433,7,"see raw data",836898,"baseline",165.365384615385,"15:34:36",88,2,4,0.75,0.95,0.2,0.75,1,0.95,7,3,1,7,1,"control",56
"165","subRE1_2","route 1",6,0.55,38,31,53,0.95,871259,53,36,1,10000,1783,3,"see raw data",853895,"baseline",167.584905660377,"15:34:36",88,2,3,0.4,0.95,0.55,0.4,1,0.95,6,3,1,6,1,"control",56
"166","subRE1_2","route 1",6,0.55,38,31,53,0.95,1668474,53,37,1,10000,1650,3,"see raw data",1651060,"control",173.867924528302,"15:34:36",88,2,3,0.4,0.95,0.55,0.4,1,0.95,6,3,1,6,2,"control",56
"167","subRE1_2","route 2",4,0.95,39,53,20,0.35,1685755,54,43,1,10000,1668,6,"see raw data",1668474,"control",166.037735849057,"15:34:36",88,2,2,0.6,0.95,0.35,0.6,1,0.95,6,4,1,6,2,"control",56
"168","subRE1_2","route 2",4,0.95,39,53,20,0.35,888490,53,42,1,10000,1833,6,"see raw data",871259,"baseline",163.792452830189,"15:34:36",88,2,2,0.6,0.95,0.35,0.6,1,0.95,6,4,1,6,1,"control",56
"169","subRE1_2","route 1",6,0.2,40,11,42,0.75,1701453,42,49,1,10000,1699,4,"see raw data",1685755,"control",169.047619047619,"15:34:36",88,2,2,0.55,0.75,0.2,0.55,1,0.75,6,4,1,6,2,"control",56
"170","subRE1_2","route 1",6,0.2,40,11,42,0.75,903788,42,48,1,10000,1750,4,"see raw data",888490,"baseline",162.690476190476,"15:34:36",88,2,2,0.55,0.75,0.2,0.55,1,0.75,6,4,1,6,1,"control",56
"171","subRE1_2","route 2",4,0.95,41,53,42,0.75,1718601,53,55,1,10000,1766,6,"see raw data",1701453,"control",165.415094339623,"15:34:36",88,2,2,0.2,0.95,0.75,0.2,1,0.95,6,4,1,6,2,"control",56
"172","subRE1_2","route 2",4,0.95,41,53,42,0.75,921069,53,54,1,10000,1900,6,"see raw data",903788,"baseline",163.188679245283,"15:34:36",88,2,2,0.2,0.95,0.75,0.2,1,0.95,6,4,1,6,1,"control",56
"173","subRE1_2","route 2",5,0.55,42,31,11,0.2,934668,31,61,1,10000,1652,7,"see raw data",921069,"baseline",166.58064516129,"15:34:36",88,2,2,0.35,0.55,0.2,0.35,1,0.55,7,5,1,7,1,"control",56
"174","subRE1_2","route 2",5,0.55,42,31,11,0.2,1732099,31,62,1,10000,1716,7,"see raw data",1718601,"control",161.666666666667,"15:34:36",88,2,2,0.35,0.55,0.2,0.35,1,0.55,7,5,1,7,2,"control",56
"175","subRE1_2","route 2",6,0.95,43,53,20,0.35,952465,54,68,1,10000,2016,7,"see raw data",934668,"baseline",169.471698113208,"15:34:36",88,2,1,0.6,0.95,0.35,0.6,1,0.95,7,6,1,7,1,"control",56
"176","subRE1_2","route 2",6,0.95,43,53,20,0.35,1749030,54,69,1,10000,1550,7,"see raw data",1732099,"control",158.792452830189,"15:34:36",88,2,1,0.6,0.95,0.35,0.6,1,0.95,7,6,1,7,2,"control",56
"177","subRE1_3","route 2",7,0.35,0,19,52,0.95,1078668,19,3,1,10000,2620,3,"see raw data",0,"control",210.368421052632,"11:49:21",88,3,4,0.6,0.35,0.95,-0.6,0,0.95,3,7,0,7,2,"control",55
"178","subRE1_3","route 1",7,0.35,0,19,52,0.95,214132,51,0,0,10000,2314,3,"see raw data",190314,"baseline",184.6,"11:49:21",88,3,4,0.6,0.95,0.35,0.6,1,0.95,7,3,1,7,1,"control",55
"179","subRE1_3","route 2",7,0.75,1,41,52,0.95,1095430,41,7,1,10000,1831,4,"see raw data",1078668,"control",197.925,"11:49:21",88,3,3,0.2,0.75,0.95,-0.2,0,0.95,4,7,0,7,2,"control",55
"180","subRE1_3","route 2",7,0.75,1,41,52,0.95,232557,41,4,1,10000,2899,4,"see raw data",214132,"baseline",212.85,"11:49:21",88,3,3,0.2,0.75,0.95,-0.2,0,0.95,4,7,0,7,1,"control",55
"181","subRE1_3","route 2",4,0.55,2,30,11,0.2,252535,31,10,1,10000,7229,6,"see raw data",232557,"baseline",189.766666666667,"11:49:21",88,3,2,0.35,0.55,0.2,0.35,1,0.55,6,4,1,6,1,"control",55
"182","subRE1_3","route 2",4,0.55,2,30,11,0.2,1110392,30,13,1,10000,2432,6,"see raw data",1095430,"control",191.896551724138,"11:49:21",88,3,2,0.35,0.55,0.2,0.35,1,0.55,6,4,1,6,2,"control",55
"183","subRE1_3","route 1",5,0.2,3,11,41,0.75,1127737,41,18,1,10000,2199,4,"see raw data",1110392,"control",201.2,"11:49:21",88,3,1,0.55,0.75,0.2,0.55,1,0.75,5,4,1,5,2,"control",55
"184","subRE1_3","route 2",5,0.2,3,11,41,0.75,266431,11,14,1,10000,4749,4,"see raw data",252535,"baseline",196.909090909091,"11:49:21",88,3,1,0.55,0.2,0.75,-0.55,0,0.75,4,5,0,5,1,"control",55
"185","subRE1_3","route 1",5,0.95,4,52,41,0.75,1144466,41,23,1,10000,2114,7,"see raw data",1127737,"control",189.707317073171,"11:49:21",88,3,2,0.2,0.75,0.95,-0.2,0,0.95,5,7,0,7,2,"control",55
"186","subRE1_3","route 1",5,0.95,4,52,41,0.75,283426,42,19,1,10000,2000,7,"see raw data",266431,"baseline",197.121951219512,"11:49:21",88,3,2,0.2,0.75,0.95,-0.2,0,0.95,5,7,0,7,1,"control",55
"187","subRE1_3","route 2",6,0.55,5,30,52,0.95,1159146,30,26,1,10000,1902,3,"see raw data",1144466,"control",198.241379310345,"11:49:21",88,3,3,0.4,0.55,0.95,-0.4,0,0.95,3,6,0,6,2,"control",55
"188","subRE1_3","route 2",6,0.55,5,30,52,0.95,299254,30,22,1,10000,2834,3,"see raw data",283426,"baseline",204.366666666667,"11:49:21",88,3,3,0.4,0.55,0.95,-0.4,0,0.95,3,6,0,6,1,"control",55
"189","subRE1_3","route 2",4,0.75,6,41,30,0.55,1176405,41,32,1,10000,2264,6,"see raw data",1159146,"control",195.878048780488,"11:49:21",88,3,2,0.2,0.75,0.55,0.2,1,0.75,6,4,1,6,2,"control",55
"190","subRE1_3","route 1",4,0.75,6,41,30,0.55,320500,30,26,1,10000,8081,6,"see raw data",299254,"baseline",203.9,"11:49:21",88,3,2,0.2,0.55,0.75,-0.2,0,0.75,4,6,0,6,1,"control",55
"191","subRE1_3","route 1",3,0.95,7,52,11,0.2,1187052,11,35,1,10000,1699,6,"see raw data",1176405,"control",199.9,"11:49:21",88,3,3,0.75,0.2,0.95,-0.75,0,0.95,3,6,0,6,2,"control",55
"192","subRE1_3","route 1",3,0.95,7,52,11,0.2,333377,11,29,1,10000,3733,6,"see raw data",320500,"baseline",201.363636363636,"11:49:21",88,3,3,0.75,0.2,0.95,-0.75,0,0.95,3,6,0,6,1,"control",55
"193","subRE1_3","route 2",4,0.35,8,19,11,0.2,1199932,19,40,1,10000,2084,5,"see raw data",1187052,"control",199.888888888889,"11:49:21",88,3,1,0.15,0.35,0.2,0.15,1,0.35,5,4,1,5,2,"control",55
"194","subRE1_3","route 2",4,0.35,8,19,11,0.2,347541,19,34,1,10000,3417,5,"see raw data",333377,"baseline",198.055555555556,"11:49:21",88,3,1,0.15,0.35,0.2,0.15,1,0.35,5,4,1,5,1,"control",55
"195","subRE1_3","route 2",6,0.35,9,19,52,0.95,361702,20,37,1,10000,3233,3,"see raw data",347541,"baseline",205.157894736842,"11:49:21",88,3,3,0.6,0.35,0.95,-0.6,0,0.95,3,6,0,6,1,"control",55
"196","subRE1_3","route 2",6,0.35,9,19,52,0.95,1212245,19,43,1,10000,1733,3,"see raw data",1199932,"control",203.421052631579,"11:49:21",88,3,3,0.6,0.35,0.95,-0.6,0,0.95,3,6,0,6,2,"control",55
"197","subRE1_3","route 1",4,0.2,10,11,19,0.35,1225291,20,47,1,10000,2283,3,"see raw data",1212245,"control",197.421052631579,"11:49:21",88,3,1,0.15,0.35,0.2,0.15,1,0.35,4,3,1,4,2,"control",55
"198","subRE1_3","route 1",4,0.2,10,11,19,0.35,375917,19,41,1,10000,3429,3,"see raw data",361702,"baseline",205.368421052632,"11:49:21",88,3,1,0.15,0.35,0.2,0.15,1,0.35,4,3,1,4,1,"control",55
"199","subRE1_3","route 2",5,0.75,11,41,30,0.55,1422300,41,7,1,10000,2216,7,"see raw data",1405438,"control",184.853658536585,"11:49:21",88,3,2,0.2,0.75,0.55,0.2,1,0.75,7,5,1,7,2,"control",55
"200","subRE1_3","route 2",5,0.75,11,41,30,0.55,431369,41,7,1,10000,2684,7,"see raw data",413939,"baseline",191.853658536585,"11:49:21",88,3,2,0.2,0.75,0.55,0.2,1,0.75,7,5,1,7,1,"control",55
"201","subRE1_3","route 2",4,0.75,12,41,11,0.2,449892,41,13,1,10000,3584,6,"see raw data",431369,"baseline",198.7,"11:49:21",88,3,2,0.55,0.75,0.2,0.55,1,0.75,6,4,1,6,1,"control",55
"202","subRE1_3","route 2",4,0.75,12,41,11,0.2,1440892,42,13,1,10000,2433,6,"see raw data",1422300,"control",223.048780487805,"11:49:21",88,3,2,0.55,0.75,0.2,0.55,1,0.75,6,4,1,6,2,"control",55
"203","subRE1_3","route 1",3,0.95,13,52,19,0.35,462655,19,16,1,10000,1818,5,"see raw data",449892,"baseline",206.166666666667,"11:49:21",88,3,2,0.6,0.35,0.95,-0.6,0,0.95,3,5,0,5,1,"control",55
"204","subRE1_3","route 1",3,0.95,13,52,19,0.35,1454821,19,16,1,10000,3349,5,"see raw data",1440892,"control",206.444444444444,"11:49:21",88,3,2,0.6,0.35,0.95,-0.6,0,0.95,3,5,0,5,2,"control",55
"205","subRE1_3","route 2",1,0.2,14,11,52,0.95,1465735,12,24,1,10000,1951,8,"see raw data",1454821,"control",181.909090909091,"11:49:21",88,3,7,0.75,0.2,0.95,-0.75,0,0.95,8,1,1,8,2,"control",55
"206","subRE1_3","route 2",1,0.2,14,11,52,0.95,475167,11,24,1,10000,3349,8,"see raw data",462655,"baseline",196.818181818182,"11:49:21",88,3,7,0.75,0.2,0.95,-0.75,0,0.95,8,1,1,8,1,"control",55
"207","subRE1_3","route 2",4,0.35,15,19,41,0.75,1480397,19,27,1,10000,3949,3,"see raw data",1465735,"control",200.888888888889,"11:49:21",88,3,1,0.4,0.35,0.75,-0.4,0,0.75,3,4,0,4,2,"control",55
"208","subRE1_3","route 2",4,0.35,15,19,41,0.75,488664,20,27,1,10000,2949,3,"see raw data",475167,"baseline",184.052631578947,"11:49:21",88,3,1,0.4,0.35,0.75,-0.4,0,0.75,3,4,0,4,1,"control",55
"209","subRE1_3","route 1",6,0.2,16,11,30,0.55,503459,31,33,1,10000,2452,5,"see raw data",488664,"baseline",181.666666666667,"11:49:21",88,3,1,0.35,0.55,0.2,0.35,1,0.55,6,5,1,6,1,"control",55
"210","subRE1_3","route 1",6,0.2,16,11,30,0.55,1507089,30,33,1,10000,13682,5,"see raw data",1480397,"control",203.866666666667,"11:49:21",88,3,1,0.35,0.55,0.2,0.35,1,0.55,6,5,1,6,2,"control",55
"211","subRE1_3","route 2",5,0.2,17,11,52,0.95,516455,12,36,1,10000,3850,3,"see raw data",503459,"baseline",186.636363636364,"11:49:21",88,3,2,0.75,0.2,0.95,-0.75,0,0.95,3,5,0,5,1,"control",55
"212","subRE1_3","route 2",5,0.2,17,11,52,0.95,1518071,12,36,1,10000,1800,3,"see raw data",1507089,"control",200.090909090909,"11:49:21",88,3,2,0.75,0.2,0.95,-0.75,0,0.95,3,5,0,5,2,"control",55
"213","subRE1_3","route 2",5,0.35,18,19,52,0.95,529784,19,40,1,10000,2583,4,"see raw data",516455,"baseline",201.684210526316,"11:49:21",88,3,1,0.6,0.35,0.95,-0.6,0,0.95,4,5,0,5,1,"control",55
"214","subRE1_3","route 2",5,0.35,18,19,52,0.95,1530898,19,40,1,10000,2245,4,"see raw data",1518071,"control",191.421052631579,"11:49:21",88,3,1,0.6,0.35,0.95,-0.6,0,0.95,4,5,0,5,2,"control",55
"215","subRE1_3","route 2",5,0.2,19,11,52,0.95,540614,11,43,1,10000,2082,3,"see raw data",529784,"baseline",180,"11:49:21",88,3,2,0.75,0.2,0.95,-0.75,0,0.95,3,5,0,5,1,"control",55
"216","subRE1_3","route 2",5,0.2,19,11,52,0.95,1543561,11,43,1,10000,3499,3,"see raw data",1530898,"control",197.545454545455,"11:49:21",88,3,2,0.75,0.2,0.95,-0.75,0,0.95,3,5,0,5,2,"control",55
"217","subRE1_3","route 2",7,0.55,20,30,52,0.95,563374,31,47,1,10000,9764,4,"see raw data",540614,"baseline",192.8,"11:49:21",88,3,3,0.4,0.55,0.95,-0.4,0,0.95,4,7,0,7,1,"control",55
"218","subRE1_3","route 2",7,0.55,20,30,52,0.95,1559725,30,47,1,10000,3198,4,"see raw data",1543561,"control",201.655172413793,"11:49:21",88,3,3,0.4,0.55,0.95,-0.4,0,0.95,4,7,0,7,2,"control",55
"219","subRE1_3","route 2",7,0.2,21,11,41,0.75,577070,12,53,1,10000,4732,6,"see raw data",563374,"baseline",188.090909090909,"11:49:21",88,3,1,0.55,0.2,0.75,-0.55,0,0.75,6,7,0,7,1,"control",55
"220","subRE1_3","route 1",7,0.2,21,11,41,0.75,1579067,41,54,1,10000,4583,6,"see raw data",1559725,"control",189.80487804878,"11:49:21",88,3,1,0.55,0.75,0.2,0.55,1,0.75,7,6,1,7,2,"control",55
"221","subRE1_3","route 2",4,0.55,22,30,52,0.95,1621171,30,3,1,10000,6481,3,"see raw data",1601527,"control",203.666666666667,"11:49:21",88,3,1,0.4,0.55,0.95,-0.4,0,0.95,3,4,0,4,2,"control",55
"222","subRE1_3","route 2",4,0.55,22,30,52,0.95,627040,30,3,1,10000,2350,3,"see raw data",612126,"baseline",185.448275862069,"11:49:21",88,3,1,0.4,0.55,0.95,-0.4,0,0.95,3,4,0,4,1,"control",55
"223","subRE1_3","route 1",4,0.95,23,52,11,0.2,1633401,12,7,1,10000,2866,6,"see raw data",1621171,"control",206,"11:49:21",88,3,2,0.75,0.2,0.95,-0.75,0,0.95,4,6,0,6,2,"control",55
"224","subRE1_3","route 1",4,0.95,23,52,11,0.2,638601,11,7,1,10000,2430,6,"see raw data",627040,"baseline",204.9,"11:49:21",88,3,2,0.75,0.2,0.95,-0.75,0,0.95,4,6,0,6,1,"control",55
"225","subRE1_3","route 2",3,0.55,24,30,19,0.35,652917,31,14,1,10000,2136,7,"see raw data",638601,"baseline",171.7,"11:49:21",88,3,4,0.2,0.55,0.35,0.2,1,0.55,7,3,1,7,1,"control",55
"226","subRE1_3","route 2",3,0.55,24,30,19,0.35,1651095,30,14,1,10000,4952,7,"see raw data",1633401,"control",200.51724137931,"11:49:21",88,3,4,0.2,0.55,0.35,0.2,1,0.55,7,3,1,7,2,"control",55
"227","subRE1_3","route 1",7,0.2,25,11,19,0.35,665897,20,21,1,10000,2382,6,"see raw data",652917,"baseline",192.842105263158,"11:49:21",88,3,1,0.15,0.35,0.2,0.15,1,0.35,7,6,1,7,1,"control",55
"228","subRE1_3","route 1",7,0.2,25,11,19,0.35,1666241,19,21,1,10000,4216,6,"see raw data",1651095,"control",218.555555555556,"11:49:21",88,3,1,0.15,0.35,0.2,0.15,1,0.35,7,6,1,7,2,"control",55
"229","subRE1_3","route 2",4,0.75,26,41,11,0.2,682475,41,27,1,10000,2048,6,"see raw data",665897,"baseline",177.243902439024,"11:49:21",88,3,2,0.55,0.75,0.2,0.55,1,0.75,6,4,1,6,1,"control",55
"230","subRE1_3","route 2",4,0.75,26,41,11,0.2,1690750,42,27,1,10000,9363,6,"see raw data",1666241,"control",201.170731707317,"11:49:21",88,3,2,0.55,0.75,0.2,0.55,1,0.75,6,4,1,6,2,"control",55
"231","subRE1_3","route 1",8,0.95,27,52,11,0.2,1702748,11,35,1,10000,2804,1,"see raw data",1690750,"control",203,"11:49:21",88,3,7,0.75,0.2,0.95,-0.75,0,0.95,8,1,1,8,2,"control",55
"232","subRE1_3","route 1",8,0.95,27,52,11,0.2,693204,11,35,1,10000,1650,1,"see raw data",682475,"baseline",199.909090909091,"11:49:21",88,3,7,0.75,0.2,0.95,-0.75,0,0.95,8,1,1,8,1,"control",55
"233","subRE1_3","route 1",7,0.35,28,19,41,0.75,1725006,41,42,1,10000,7214,6,"see raw data",1702748,"control",201.175,"11:49:21",88,3,1,0.4,0.75,0.35,0.4,1,0.75,7,6,1,7,2,"control",55
"234","subRE1_3","route 1",7,0.35,28,19,41,0.75,710480,41,42,1,10000,2916,6,"see raw data",693204,"baseline",182.073170731707,"11:49:21",88,3,1,0.4,0.75,0.35,0.4,1,0.75,7,6,1,7,1,"control",55
"235","subRE1_3","route 1",3,0.95,29,52,19,0.35,1738954,19,45,1,10000,3614,4,"see raw data",1725006,"control",183.421052631579,"11:49:21",88,3,1,0.6,0.35,0.95,-0.6,0,0.95,3,4,0,4,2,"control",55
"236","subRE1_3","route 1",3,0.95,29,52,19,0.35,722793,19,45,1,10000,1916,4,"see raw data",710480,"baseline",185.944444444444,"11:49:21",88,3,1,0.6,0.35,0.95,-0.6,0,0.95,3,4,0,4,1,"control",55
"237","subRE1_3","route 1",6,0.2,30,11,19,0.35,1784727,20,51,1,10000,30029,5,"see raw data",1738954,"control",197.315789473684,"11:49:21",88,3,1,0.15,0.35,0.2,0.15,1,0.35,6,5,1,6,2,"control",55
"238","subRE1_3","route 1",6,0.2,30,11,19,0.35,735608,19,51,1,10000,2481,5,"see raw data",722793,"baseline",184.277777777778,"11:49:21",88,3,1,0.15,0.35,0.2,0.15,1,0.35,6,5,1,6,1,"control",55
"239","subRE1_3","route 2",3,0.55,31,30,11,0.2,749968,31,56,1,10000,1652,5,"see raw data",735608,"baseline",189.266666666667,"11:49:21",88,3,2,0.35,0.55,0.2,0.35,1,0.55,5,3,1,5,1,"control",55
"240","subRE1_3","route 2",3,0.55,31,30,11,0.2,1801650,30,56,1,10000,2532,5,"see raw data",1784727,"control",246.448275862069,"11:49:21",88,3,2,0.35,0.55,0.2,0.35,1,0.55,5,3,1,5,2,"control",55
"241","subRE1_3","route 2",7,0.2,32,11,52,0.95,1814279,11,59,1,10000,3449,3,"see raw data",1801650,"control",191.090909090909,"11:49:21",88,3,4,0.75,0.2,0.95,-0.75,0,0.95,3,7,0,7,2,"control",55
"242","subRE1_3","route 2",7,0.2,32,11,52,0.95,761147,12,59,1,10000,2233,3,"see raw data",749968,"baseline",180.454545454545,"11:49:21",88,3,4,0.75,0.2,0.95,-0.75,0,0.95,3,7,0,7,1,"control",55
"243","subRE1_3","route 2",6,0.75,33,41,11,0.2,1861065,41,7,1,10000,2366,7,"see raw data",1843405,"control",207.5,"11:49:21",88,3,1,0.55,0.75,0.2,0.55,1,0.75,7,6,1,7,2,"control",55
"244","subRE1_3","route 2",6,0.75,33,41,11,0.2,810949,42,7,1,10000,18658,7,"see raw data",777859,"baseline",184.121951219512,"11:49:21",88,3,1,0.55,0.75,0.2,0.55,1,0.75,7,6,1,7,1,"control",55
"245","subRE1_3","route 2",4,0.55,34,30,19,0.35,1889724,31,12,1,10000,15912,5,"see raw data",1861065,"control",193.7,"11:49:21",88,3,1,0.2,0.55,0.35,0.2,1,0.55,5,4,1,5,2,"control",55
"246","subRE1_3","route 2",4,0.55,34,30,19,0.35,826661,30,12,1,10000,2550,5,"see raw data",810949,"baseline",213.724137931034,"11:49:21",88,3,1,0.2,0.55,0.35,0.2,1,0.55,5,4,1,5,1,"control",55
"247","subRE1_3","route 1",4,0.95,35,52,30,0.55,1914232,31,16,1,10000,11464,5,"see raw data",1889724,"control",200.333333333333,"11:49:21",88,3,1,0.4,0.55,0.95,-0.4,0,0.95,4,5,0,5,2,"control",55
"248","subRE1_3","route 1",4,0.95,35,52,30,0.55,841123,31,16,1,10000,1700,5,"see raw data",826661,"baseline",193.3,"11:49:21",88,3,1,0.4,0.55,0.95,-0.4,0,0.95,4,5,0,5,1,"control",55
"249","subRE1_3","route 1",7,0.35,36,19,30,0.55,855852,30,23,1,10000,2166,4,"see raw data",841123,"baseline",188.51724137931,"11:49:21",88,3,3,0.2,0.55,0.35,0.2,1,0.55,7,4,1,7,1,"control",55
"250","subRE1_3","route 1",7,0.35,36,19,30,0.55,1936759,30,23,1,10000,9909,4,"see raw data",1914232,"control",190.448275862069,"11:49:21",88,3,3,0.2,0.55,0.35,0.2,1,0.55,7,4,1,7,2,"control",55
"251","subRE1_3","route 1",3,0.95,37,52,11,0.2,1950290,11,26,1,10000,4569,7,"see raw data",1936759,"control",192.545454545455,"11:49:21",88,3,4,0.75,0.2,0.95,-0.75,0,0.95,3,7,0,7,2,"control",55
"252","subRE1_3","route 1",3,0.95,37,52,11,0.2,867532,11,26,1,10000,2684,7,"see raw data",855852,"baseline",192.454545454545,"11:49:21",88,3,4,0.75,0.2,0.95,-0.75,0,0.95,3,7,0,7,1,"control",55
"253","subRE1_3","route 2",6,0.55,38,30,52,0.95,1969732,31,29,1,10000,6300,3,"see raw data",1950290,"control",209.4,"11:49:21",88,3,3,0.4,0.55,0.95,-0.4,0,0.95,3,6,0,6,2,"control",55
"254","subRE1_3","route 2",6,0.55,38,30,52,0.95,882832,30,29,1,10000,2466,3,"see raw data",867532,"baseline",200.51724137931,"11:49:21",88,3,3,0.4,0.55,0.95,-0.4,0,0.95,3,6,0,6,1,"control",55
"255","subRE1_3","route 1",4,0.95,39,52,19,0.35,895126,19,33,1,10000,1735,6,"see raw data",882832,"baseline",193.842105263158,"11:49:21",88,3,2,0.6,0.35,0.95,-0.6,0,0.95,4,6,0,6,1,"control",55
"256","subRE1_3","route 1",4,0.95,39,52,19,0.35,1987077,19,33,1,10000,6765,6,"see raw data",1969732,"control",195.578947368421,"11:49:21",88,3,2,0.6,0.35,0.95,-0.6,0,0.95,4,6,0,6,2,"control",55
"257","subRE1_3","route 1",6,0.2,40,11,41,0.75,2003955,41,39,1,10000,2529,4,"see raw data",1987077,"control",185.35,"11:49:21",88,3,2,0.55,0.75,0.2,0.55,1,0.75,6,4,1,6,2,"control",55
"258","subRE1_3","route 1",6,0.2,40,11,41,0.75,912668,41,39,1,10000,3166,4,"see raw data",895126,"baseline",186.219512195122,"11:49:21",88,3,2,0.55,0.75,0.2,0.55,1,0.75,6,4,1,6,1,"control",55
"259","subRE1_3","route 1",4,0.95,41,52,41,0.75,2028965,41,43,1,10000,9664,6,"see raw data",2003955,"control",208.463414634146,"11:49:21",88,3,2,0.2,0.75,0.95,-0.2,0,0.95,4,6,0,6,2,"control",55
"260","subRE1_3","route 1",4,0.95,41,52,41,0.75,930480,41,43,1,10000,3216,6,"see raw data",912668,"baseline",185.25,"11:49:21",88,3,2,0.2,0.75,0.95,-0.2,0,0.95,4,6,0,6,1,"control",55
"261","subRE1_3","route 2",5,0.55,42,30,11,0.2,2043835,30,50,1,10000,2499,7,"see raw data",2028965,"control",186.724137931034,"11:49:21",88,3,2,0.35,0.55,0.2,0.35,1,0.55,7,5,1,7,2,"control",55
"262","subRE1_3","route 2",5,0.55,42,30,11,0.2,945694,31,50,1,10000,2449,7,"see raw data",930480,"baseline",196.033333333333,"11:49:21",88,3,2,0.35,0.55,0.2,0.35,1,0.55,7,5,1,7,1,"control",55
"263","subRE1_3","route 1",6,0.95,43,52,19,0.35,2068403,19,56,1,10000,12346,7,"see raw data",2043835,"control",279.789473684211,"11:49:21",88,3,1,0.6,0.35,0.95,-0.6,0,0.95,6,7,0,7,2,"control",55
"264","subRE1_3","route 1",6,0.95,43,52,19,0.35,957955,19,56,1,10000,1718,7,"see raw data",945694,"baseline",199.944444444444,"11:49:21",88,3,1,0.6,0.35,0.95,-0.6,0,0.95,6,7,0,7,1,"control",55
"265","subRE1_4","route 1",7,0.35,0,19,52,0.95,199275,49,0,0,10000,3453,3,"see raw data",174300,"baseline",187.571428571429,"15:41:35",88,4,4,0.6,0.95,0.35,0.6,1,0.95,7,3,1,7,1,"control",55
"266","subRE1_4","route 1",7,0.35,0,19,52,0.95,994185,48,0,0,10000,2185,3,"see raw data",0,"control",174.297872340426,"15:41:35",88,4,4,0.6,0.95,0.35,0.6,1,0.95,7,3,1,7,2,"control",55
"267","subRE1_4","route 1",7,0.75,1,41,52,0.95,1010903,53,7,1,10000,1452,4,"see raw data",994185,"control",151.415094339623,"15:41:35",88,4,3,0.2,0.95,0.75,0.2,1,0.95,7,4,1,7,2,"control",55
"268","subRE1_4","route 1",7,0.75,1,41,52,0.95,222749,49,0,0,10000,1935,4,"see raw data",199275,"baseline",191.69387755102,"15:41:35",88,4,3,0.2,0.95,0.75,0.2,1,0.95,7,4,1,7,1,"control",55
"269","subRE1_4","route 2",4,0.55,2,30,11,0.2,236996,30,6,1,10000,2586,6,"see raw data",222749,"baseline",157.655172413793,"15:41:35",88,4,2,0.35,0.55,0.2,0.35,1,0.55,6,4,1,6,1,"control",55
"270","subRE1_4","route 2",4,0.55,2,30,11,0.2,1024333,30,13,1,10000,1786,6,"see raw data",1010903,"control",154.172413793103,"15:41:35",88,4,2,0.35,0.55,0.2,0.35,1,0.55,6,4,1,6,2,"control",55
"271","subRE1_4","route 1",5,0.2,3,11,41,0.75,1040999,41,18,1,10000,1786,4,"see raw data",1024333,"control",198.075,"15:41:35",88,4,1,0.55,0.75,0.2,0.55,1,0.75,5,4,1,5,2,"control",55
"272","subRE1_4","route 1",5,0.2,3,11,41,0.75,253914,42,11,1,10000,1768,4,"see raw data",236996,"baseline",199.357142857143,"15:41:35",88,4,1,0.55,0.75,0.2,0.55,1,0.75,5,4,1,5,1,"control",55
"273","subRE1_4","route 2",5,0.95,4,52,41,0.75,1056931,53,25,1,10000,1216,7,"see raw data",1040999,"control",144.792452830189,"15:41:35",88,4,2,0.2,0.95,0.75,0.2,1,0.95,7,5,1,7,2,"control",55
"274","subRE1_4","route 2",5,0.95,4,52,41,0.75,275719,53,18,1,10000,6773,7,"see raw data",253914,"baseline",136.905660377358,"15:41:35",88,4,2,0.2,0.95,0.75,0.2,1,0.95,7,5,1,7,1,"control",55
"275","subRE1_4","route 1",6,0.55,5,30,52,0.95,1072480,52,31,1,10000,1317,3,"see raw data",1056931,"control",143.096153846154,"15:41:35",88,4,3,0.4,0.95,0.55,0.4,1,0.95,6,3,1,6,2,"control",55
"276","subRE1_4","route 1",6,0.55,5,30,52,0.95,297424,52,24,1,10000,6924,3,"see raw data",275719,"baseline",137.961538461538,"15:41:35",88,4,3,0.4,0.95,0.55,0.4,1,0.95,6,3,1,6,1,"control",55
"277","subRE1_4","route 2",4,0.75,6,41,30,0.55,313556,42,30,1,10000,3034,6,"see raw data",297424,"baseline",151.731707317073,"15:41:35",88,4,2,0.2,0.75,0.55,0.2,1,0.75,6,4,1,6,1,"control",55
"278","subRE1_4","route 2",4,0.75,6,41,30,0.55,1087161,42,37,1,10000,1718,6,"see raw data",1072480,"control",146.09756097561,"15:41:35",88,4,2,0.2,0.75,0.55,0.2,1,0.75,6,4,1,6,2,"control",55
"279","subRE1_4","route 2",3,0.95,7,52,11,0.2,1103162,53,43,1,10000,1651,6,"see raw data",1087161,"control",143.403846153846,"15:41:35",88,4,3,0.75,0.95,0.2,0.75,1,0.95,6,3,1,6,2,"control",55
"280","subRE1_4","route 2",3,0.95,7,52,11,0.2,330440,53,36,1,10000,2936,6,"see raw data",313556,"baseline",135.057692307692,"15:41:35",88,4,3,0.75,0.95,0.2,0.75,1,0.95,6,3,1,6,1,"control",55
"281","subRE1_4","route 2",4,0.35,8,19,11,0.2,1114856,20,48,1,10000,1268,5,"see raw data",1103162,"control",165.947368421053,"15:41:35",88,4,1,0.15,0.35,0.2,0.15,1,0.35,5,4,1,5,2,"control",55
"282","subRE1_4","route 2",4,0.35,8,19,11,0.2,343085,20,41,1,10000,2703,5,"see raw data",330440,"baseline",152.736842105263,"15:41:35",88,4,1,0.15,0.35,0.2,0.15,1,0.35,5,4,1,5,1,"control",55
"283","subRE1_4","route 1",6,0.35,9,19,52,0.95,1131656,52,54,1,10000,1553,3,"see raw data",1114856,"control",162.673076923077,"15:41:35",88,4,3,0.6,0.95,0.35,0.6,1,0.95,6,3,1,6,2,"control",55
"284","subRE1_4","route 1",6,0.35,9,19,52,0.95,359852,53,47,1,10000,2202,3,"see raw data",343085,"baseline",145.980769230769,"15:41:35",88,4,3,0.6,0.95,0.35,0.6,1,0.95,6,3,1,6,1,"control",55
"285","subRE1_4","route 1",4,0.2,10,11,19,0.35,372548,19,51,1,10000,2768,3,"see raw data",359852,"baseline",140.833333333333,"15:41:35",88,4,1,0.15,0.35,0.2,0.15,1,0.35,4,3,1,4,1,"control",55
"286","subRE1_4","route 1",4,0.2,10,11,19,0.35,1143134,19,58,1,10000,1501,3,"see raw data",1131656,"control",163.055555555556,"15:41:35",88,4,1,0.15,0.35,0.2,0.15,1,0.35,4,3,1,4,2,"control",55
"287","subRE1_4","route 2",5,0.75,11,41,30,0.55,1178086,42,7,1,10000,1902,7,"see raw data",1163439,"control",137.595238095238,"15:41:35",88,4,2,0.2,0.75,0.55,0.2,1,0.75,7,5,1,7,2,"control",55
"288","subRE1_4","route 2",5,0.75,11,41,30,0.55,404763,42,7,1,10000,2538,7,"see raw data",388714,"baseline",150.975609756098,"15:41:35",88,4,2,0.2,0.75,0.55,0.2,1,0.75,7,5,1,7,1,"control",55
"289","subRE1_4","route 2",4,0.75,12,41,11,0.2,1192533,41,13,1,10000,1322,6,"see raw data",1178086,"control",146.90243902439,"15:41:35",88,4,2,0.55,0.75,0.2,0.55,1,0.75,6,4,1,6,2,"control",55
"290","subRE1_4","route 2",4,0.75,12,41,11,0.2,428187,40,7,0,10000,1717,6,"see raw data",404763,"baseline",226.641025641026,"15:41:35",88,4,2,0.55,0.75,0.2,0.55,1,0.75,6,4,1,6,1,"control",55
"291","subRE1_4","route 2",3,0.95,13,52,19,0.35,1207865,53,18,1,10000,1403,5,"see raw data",1192533,"control",136.019230769231,"15:41:35",88,4,2,0.6,0.95,0.35,0.6,1,0.95,5,3,1,5,2,"control",55
"292","subRE1_4","route 2",3,0.95,13,52,19,0.35,445287,53,12,1,10000,2537,5,"see raw data",428187,"baseline",136.528301886792,"15:41:35",88,4,2,0.6,0.95,0.35,0.6,1,0.95,5,3,1,5,1,"control",55
"293","subRE1_4","route 2",1,0.2,14,11,52,0.95,1218759,11,26,1,10000,1567,8,"see raw data",1207865,"control",220.3,"15:41:35",88,4,7,0.75,0.2,0.95,-0.75,0,0.95,8,1,1,8,2,"control",55
"294","subRE1_4","route 2",1,0.2,14,11,52,0.95,458234,11,20,1,10000,4155,8,"see raw data",445287,"baseline",176,"15:41:35",88,4,7,0.75,0.2,0.95,-0.75,0,0.95,8,1,1,8,1,"control",55
"295","subRE1_4","route 1",4,0.35,15,19,41,0.75,1232990,41,30,1,10000,1468,3,"see raw data",1218759,"control",136.4,"15:41:35",88,4,1,0.4,0.75,0.35,0.4,1,0.75,4,3,1,4,2,"control",55
"296","subRE1_4","route 1",4,0.35,15,19,41,0.75,474300,42,24,1,10000,2337,3,"see raw data",458234,"baseline",166.809523809524,"15:41:35",88,4,1,0.4,0.75,0.35,0.4,1,0.75,4,3,1,4,1,"control",55
"297","subRE1_4","route 1",6,0.2,16,11,30,0.55,487630,30,30,1,10000,1819,5,"see raw data",474300,"baseline",156.266666666667,"15:41:35",88,4,1,0.35,0.55,0.2,0.35,1,0.55,6,5,1,6,1,"control",55
"298","subRE1_4","route 1",6,0.2,16,11,30,0.55,1245737,31,36,1,10000,1617,5,"see raw data",1232990,"control",145.870967741935,"15:41:35",88,4,1,0.35,0.55,0.2,0.35,1,0.55,6,5,1,6,2,"control",55
"299","subRE1_4","route 1",5,0.2,17,11,52,0.95,503029,52,35,1,10000,1668,3,"see raw data",487630,"baseline",134.730769230769,"15:41:35",88,4,2,0.75,0.95,0.2,0.75,1,0.95,5,3,1,5,1,"control",55
"300","subRE1_4","route 1",5,0.2,17,11,52,0.95,1261586,52,41,1,10000,1720,3,"see raw data",1245737,"control",138.705882352941,"15:41:35",88,4,2,0.75,0.95,0.2,0.75,1,0.95,5,3,1,5,2,"control",55
"301","subRE1_4","route 1",5,0.35,18,19,52,0.95,518410,52,40,1,10000,1401,4,"see raw data",503029,"baseline",141.807692307692,"15:41:35",88,4,1,0.6,0.95,0.35,0.6,1,0.95,5,4,1,5,1,"control",55
"302","subRE1_4","route 1",5,0.35,18,19,52,0.95,1276700,53,46,1,10000,1336,4,"see raw data",1261586,"control",133.461538461538,"15:41:35",88,4,1,0.6,0.95,0.35,0.6,1,0.95,5,4,1,5,2,"control",55
"303","subRE1_4","route 1",5,0.2,19,11,52,0.95,1291616,52,51,1,10000,1218,3,"see raw data",1276700,"control",133.134615384615,"15:41:35",88,4,2,0.75,0.95,0.2,0.75,1,0.95,5,3,1,5,2,"control",55
"304","subRE1_4","route 1",5,0.2,19,11,52,0.95,534010,53,45,1,10000,1268,3,"see raw data",518410,"baseline",141.153846153846,"15:41:35",88,4,2,0.75,0.95,0.2,0.75,1,0.95,5,3,1,5,1,"control",55
"305","subRE1_4","route 1",7,0.55,20,30,52,0.95,1306948,53,58,1,10000,1369,4,"see raw data",1291616,"control",137,"15:41:35",88,4,3,0.4,0.95,0.55,0.4,1,0.95,7,4,1,7,2,"control",55
"306","subRE1_4","route 1",7,0.55,20,30,52,0.95,549808,53,52,1,10000,1453,4,"see raw data",534010,"baseline",138.528301886792,"15:41:35",88,4,3,0.4,0.95,0.55,0.4,1,0.95,7,4,1,7,1,"control",55
"307","subRE1_4","route 1",7,0.2,21,11,41,0.75,1320745,41,65,1,10000,1216,6,"see raw data",1306948,"control",140.575,"15:41:35",88,4,1,0.55,0.75,0.2,0.55,1,0.75,7,6,1,7,2,"control",55
"308","subRE1_4","route 1",7,0.2,21,11,41,0.75,564056,41,59,1,10000,1351,6,"see raw data",549808,"baseline",146.55,"15:41:35",88,4,1,0.55,0.75,0.2,0.55,1,0.75,7,6,1,7,1,"control",55
"309","subRE1_4","route 1",4,0.55,22,30,52,0.95,1351327,53,4,1,10000,1985,3,"see raw data",1335326,"control",137.245283018868,"15:41:35",88,4,1,0.4,0.95,0.55,0.4,1,0.95,4,3,1,4,2,"control",55
"310","subRE1_4","route 1",4,0.55,22,30,52,0.95,592051,53,4,1,10000,1684,3,"see raw data",576268,"baseline",134.094339622642,"15:41:35",88,4,1,0.4,0.95,0.55,0.4,1,0.95,4,3,1,4,1,"control",55
"311","subRE1_4","route 2",4,0.95,23,52,11,0.2,1367007,53,10,1,10000,1870,6,"see raw data",1351327,"control",132.826923076923,"15:41:35",88,4,2,0.75,0.95,0.2,0.75,1,0.95,6,4,1,6,2,"control",55
"312","subRE1_4","route 2",4,0.95,23,52,11,0.2,608734,52,10,1,10000,2752,6,"see raw data",592051,"baseline",138.942307692308,"15:41:35",88,4,2,0.75,0.95,0.2,0.75,1,0.95,6,4,1,6,1,"control",55
"313","subRE1_4","route 2",3,0.55,24,30,19,0.35,621930,30,17,1,10000,1569,7,"see raw data",608734,"baseline",159.379310344828,"15:41:35",88,4,4,0.2,0.55,0.35,0.2,1,0.55,7,3,1,7,1,"control",55
"314","subRE1_4","route 2",3,0.55,24,30,19,0.35,1380288,31,17,1,10000,1319,7,"see raw data",1367007,"control",166.266666666667,"15:41:35",88,4,4,0.2,0.55,0.35,0.2,1,0.55,7,3,1,7,2,"control",55
"315","subRE1_4","route 1",7,0.2,25,11,19,0.35,633592,19,24,1,10000,1568,6,"see raw data",621930,"baseline",165.944444444444,"15:41:35",88,4,1,0.15,0.35,0.2,0.15,1,0.35,7,6,1,7,1,"control",55
"316","subRE1_4","route 1",7,0.2,25,11,19,0.35,1391499,19,24,1,10000,1619,6,"see raw data",1380288,"control",144.842105263158,"15:41:35",88,4,1,0.15,0.35,0.2,0.15,1,0.35,7,6,1,7,2,"control",55
"317","subRE1_4","route 2",4,0.75,26,41,11,0.2,1406247,42,30,1,10000,1534,6,"see raw data",1391499,"control",146.952380952381,"15:41:35",88,4,2,0.55,0.75,0.2,0.55,1,0.75,6,4,1,6,2,"control",55
"318","subRE1_4","route 2",4,0.75,26,41,11,0.2,648007,42,30,1,10000,1434,6,"see raw data",633592,"baseline",146.634146341463,"15:41:35",88,4,2,0.55,0.75,0.2,0.55,1,0.75,6,4,1,6,1,"control",55
"319","subRE1_4","route 1",8,0.95,27,52,11,0.2,1416774,11,38,1,10000,1620,1,"see raw data",1406247,"control",191.9,"15:41:35",88,4,7,0.75,0.2,0.95,-0.75,0,0.95,8,1,1,8,2,"control",55
"320","subRE1_4","route 1",8,0.95,27,52,11,0.2,658701,11,38,1,10000,1601,1,"see raw data",648007,"baseline",183.545454545455,"15:41:35",88,4,7,0.75,0.2,0.95,-0.75,0,0.95,8,1,1,8,1,"control",55
"321","subRE1_4","route 1",7,0.35,28,19,41,0.75,1430270,42,45,1,10000,1037,6,"see raw data",1416774,"control",131.048780487805,"15:41:35",88,4,1,0.4,0.75,0.35,0.4,1,0.75,7,6,1,7,2,"control",55
"322","subRE1_4","route 1",7,0.35,28,19,41,0.75,673449,41,45,1,10000,1619,6,"see raw data",658701,"baseline",157.048780487805,"15:41:35",88,4,1,0.4,0.75,0.35,0.4,1,0.75,7,6,1,7,1,"control",55
"323","subRE1_4","route 2",3,0.95,29,52,19,0.35,1446337,53,49,1,10000,1754,4,"see raw data",1430270,"control",141.132075471698,"15:41:35",88,4,1,0.6,0.95,0.35,0.6,1,0.95,4,3,1,4,2,"control",55
"324","subRE1_4","route 2",3,0.95,29,52,19,0.35,689464,53,49,1,10000,1835,4,"see raw data",673449,"baseline",136.596153846154,"15:41:35",88,4,1,0.6,0.95,0.35,0.6,1,0.95,4,3,1,4,1,"control",55
"325","subRE1_4","route 1",6,0.2,30,11,19,0.35,700525,19,55,1,10000,1335,5,"see raw data",689464,"baseline",148.222222222222,"15:41:35",88,4,1,0.15,0.35,0.2,0.15,1,0.35,6,5,1,6,1,"control",55
"326","subRE1_4","route 1",6,0.2,30,11,19,0.35,1457865,20,55,1,10000,1834,5,"see raw data",1446337,"control",151.85,"15:41:35",88,4,1,0.15,0.35,0.2,0.15,1,0.35,6,5,1,6,2,"control",55
"327","subRE1_4","route 2",3,0.55,31,30,11,0.2,1470627,31,60,1,10000,1418,5,"see raw data",1457865,"control",145.033333333333,"15:41:35",88,4,2,0.35,0.55,0.2,0.35,1,0.55,5,3,1,5,2,"control",55
"328","subRE1_4","route 2",3,0.55,31,30,11,0.2,713773,31,60,1,10000,1836,5,"see raw data",700525,"baseline",149.466666666667,"15:41:35",88,4,2,0.35,0.55,0.2,0.35,1,0.55,5,3,1,5,1,"control",55
"329","subRE1_4","route 1",7,0.2,32,11,52,0.95,1486545,52,67,1,10000,1218,3,"see raw data",1470627,"control",145.326923076923,"15:41:35",88,4,4,0.75,0.95,0.2,0.75,1,0.95,7,3,1,7,2,"control",55
"330","subRE1_4","route 1",7,0.2,32,11,52,0.95,728638,52,67,1,10000,1268,3,"see raw data",713773,"baseline",133.115384615385,"15:41:35",88,4,4,0.75,0.95,0.2,0.75,1,0.95,7,3,1,7,1,"control",55
"331","subRE1_4","route 2",6,0.75,33,41,11,0.2,1514338,42,7,1,10000,1781,7,"see raw data",1499373,"control",147.853658536585,"15:41:35",88,4,1,0.55,0.75,0.2,0.55,1,0.75,7,6,1,7,2,"control",55
"332","subRE1_4","route 2",6,0.75,33,41,11,0.2,755314,42,7,1,10000,1568,7,"see raw data",740749,"baseline",142.390243902439,"15:41:35",88,4,1,0.55,0.75,0.2,0.55,1,0.75,7,6,1,7,1,"control",55
"333","subRE1_4","route 2",4,0.55,34,30,19,0.35,1527134,30,12,1,10000,1503,5,"see raw data",1514338,"control",145.551724137931,"15:41:35",88,4,1,0.2,0.55,0.35,0.2,1,0.55,5,4,1,5,2,"control",55
"334","subRE1_4","route 2",4,0.55,34,30,19,0.35,768094,30,12,1,10000,1636,5,"see raw data",755314,"baseline",146.233333333333,"15:41:35",88,4,1,0.2,0.55,0.35,0.2,1,0.55,5,4,1,5,1,"control",55
"335","subRE1_4","route 2",4,0.95,35,52,30,0.55,783074,52,17,1,10000,1468,5,"see raw data",768094,"baseline",130.903846153846,"15:41:35",88,4,1,0.4,0.95,0.55,0.4,1,0.95,5,4,1,5,1,"control",55
"336","subRE1_4","route 2",4,0.95,35,52,30,0.55,1544318,53,17,1,10000,2669,5,"see raw data",1527134,"control",143.730769230769,"15:41:35",88,4,1,0.4,0.95,0.55,0.4,1,0.95,5,4,1,5,2,"control",55
"337","subRE1_4","route 1",7,0.35,36,19,30,0.55,795687,30,24,1,10000,1285,4,"see raw data",783074,"baseline",150.724137931034,"15:41:35",88,4,3,0.2,0.55,0.35,0.2,1,0.55,7,4,1,7,1,"control",55
"338","subRE1_4","route 1",7,0.35,36,19,30,0.55,1556431,30,24,1,10000,1167,4,"see raw data",1544318,"control",142.9,"15:41:35",88,4,3,0.2,0.55,0.35,0.2,1,0.55,7,4,1,7,2,"control",55
"339","subRE1_4","route 2",3,0.95,37,52,11,0.2,810520,52,31,1,10000,1234,7,"see raw data",795687,"baseline",130.557692307692,"15:41:35",88,4,4,0.75,0.95,0.2,0.75,1,0.95,7,3,1,7,1,"control",55
"340","subRE1_4","route 2",3,0.95,37,52,11,0.2,1571779,53,31,1,10000,1251,7,"see raw data",1556431,"control",136.346153846154,"15:41:35",88,4,4,0.75,0.95,0.2,0.75,1,0.95,7,3,1,7,2,"control",55
"341","subRE1_4","route 1",6,0.55,38,30,52,0.95,1587227,53,37,1,10000,1301,3,"see raw data",1571779,"control",141.480769230769,"15:41:35",88,4,3,0.4,0.95,0.55,0.4,1,0.95,6,3,1,6,2,"control",55
"342","subRE1_4","route 1",6,0.55,38,30,52,0.95,826368,53,37,1,10000,1868,3,"see raw data",810520,"baseline",136.365384615385,"15:41:35",88,4,3,0.4,0.95,0.55,0.4,1,0.95,6,3,1,6,1,"control",55
"343","subRE1_4","route 2",4,0.95,39,52,19,0.35,841717,53,43,1,10000,1485,6,"see raw data",826368,"baseline",132.830188679245,"15:41:35",88,4,2,0.6,0.95,0.35,0.6,1,0.95,6,4,1,6,1,"control",55
"344","subRE1_4","route 2",4,0.95,39,52,19,0.35,1603444,53,43,1,10000,1802,6,"see raw data",1587227,"control",145.326923076923,"15:41:35",88,4,2,0.6,0.95,0.35,0.6,1,0.95,6,4,1,6,2,"control",55
"345","subRE1_4","route 1",6,0.2,40,11,41,0.75,855698,42,49,1,10000,1185,4,"see raw data",841717,"baseline",145.690476190476,"15:41:35",88,4,2,0.55,0.75,0.2,0.55,1,0.75,6,4,1,6,1,"control",55
"346","subRE1_4","route 1",6,0.2,40,11,41,0.75,1617909,42,49,1,10000,1435,4,"see raw data",1603444,"control",148.512195121951,"15:41:35",88,4,2,0.55,0.75,0.2,0.55,1,0.75,6,4,1,6,2,"control",55
"347","subRE1_4","route 2",4,0.95,41,52,41,0.75,1633858,52,55,1,10000,1903,6,"see raw data",1617909,"control",138.596153846154,"15:41:35",88,4,2,0.2,0.95,0.75,0.2,1,0.95,6,4,1,6,2,"control",55
"348","subRE1_4","route 2",4,0.95,41,52,41,0.75,873198,52,55,1,10000,3337,6,"see raw data",855698,"baseline",143.038461538462,"15:41:35",88,4,2,0.2,0.95,0.75,0.2,1,0.95,6,4,1,6,1,"control",55
"349","subRE1_4","route 2",5,0.55,42,30,11,0.2,1646286,31,62,1,10000,1350,7,"see raw data",1633858,"control",139.566666666667,"15:41:35",88,4,2,0.35,0.55,0.2,0.35,1,0.55,7,5,1,7,2,"control",55
"350","subRE1_4","route 2",5,0.55,42,30,11,0.2,885878,31,62,1,10000,1335,7,"see raw data",873198,"baseline",151.8,"15:41:35",88,4,2,0.35,0.55,0.2,0.35,1,0.55,7,5,1,7,1,"control",55
"351","subRE1_4","route 2",6,0.95,43,52,19,0.35,901244,52,69,1,10000,1435,7,"see raw data",885878,"baseline",134.117647058824,"15:41:35",88,4,1,0.6,0.95,0.35,0.6,1,0.95,7,6,1,7,1,"control",55
"352","subRE1_4","route 2",6,0.95,43,52,19,0.35,1662203,53,69,1,10000,1503,7,"see raw data",1646286,"control",141.88679245283,"15:41:35",88,4,1,0.6,0.95,0.35,0.6,1,0.95,7,6,1,7,2,"control",55
"353","subRE1_5","route 2",7,0.35,0,24,65,0.95,1543827,24,3,1,10000,6200,3,"see raw data",1527062,"baseline",131.826086956522,"17:18:40",88,5,4,0.6,0.35,0.95,-0.6,0,0.95,3,7,0,7,1,"planning",68
"354","subRE1_5","route 1",7,0.35,0,24,65,0.95,2970524,66,7,1,10000,2972,3,"see raw data",0,"planning",125.567164179104,"17:18:40",88,5,4,0.6,0.95,0.35,0.6,1,0.95,7,3,1,7,2,"planning",68
"355","subRE1_5","route 1",7,0.75,1,51,65,0.95,2988240,66,14,1,10000,2732,4,"see raw data",2970524,"planning",122.030769230769,"17:18:40",88,5,3,0.2,0.95,0.75,0.2,1,0.95,7,4,1,7,2,"planning",68
"356","subRE1_5","route 1",7,0.75,1,51,65,0.95,1562072,66,10,1,10000,2888,4,"see raw data",1543827,"baseline",124.5,"17:18:40",88,5,3,0.2,0.95,0.75,0.2,1,0.95,7,4,1,7,1,"planning",68
"357","subRE1_5","route 2",4,0.55,2,37,14,0.2,3002925,37,20,1,10000,2568,6,"see raw data",2988240,"planning",137,"17:18:40",88,5,2,0.35,0.55,0.2,0.35,1,0.55,6,4,1,6,2,"planning",68
"358","subRE1_5","route 1",4,0.55,2,37,14,0.2,1579891,14,14,1,10000,8255,6,"see raw data",1562072,"baseline",143.142857142857,"17:18:40",88,5,2,0.35,0.2,0.55,-0.35,0,0.55,4,6,0,6,1,"planning",68
"359","subRE1_5","route 2",5,0.2,3,14,51,0.75,1592593,15,18,1,10000,3133,4,"see raw data",1579891,"baseline",141.714285714286,"17:18:40",88,5,1,0.55,0.2,0.75,-0.55,0,0.75,4,5,0,5,1,"planning",68
"360","subRE1_5","route 1",5,0.2,3,14,51,0.75,3019125,51,25,1,10000,2252,4,"see raw data",3002925,"planning",135,"17:18:40",88,5,1,0.55,0.75,0.2,0.55,1,0.75,5,4,1,5,2,"planning",68
"361","subRE1_5","route 2",5,0.95,4,65,51,0.75,3036724,66,32,1,10000,2985,7,"see raw data",3019125,"planning",115.123076923077,"17:18:40",88,5,2,0.2,0.95,0.75,0.2,1,0.95,7,5,1,7,2,"planning",68
"362","subRE1_5","route 2",5,0.95,4,65,51,0.75,1609860,66,25,1,10000,2100,7,"see raw data",1592593,"baseline",124.415384615385,"17:18:40",88,5,2,0.2,0.95,0.75,0.2,1,0.95,7,5,1,7,1,"planning",68
"363","subRE1_5","route 1",6,0.55,5,37,65,0.95,1627840,66,31,1,10000,2230,3,"see raw data",1609860,"baseline",131.584615384615,"17:18:40",88,5,3,0.4,0.95,0.55,0.4,1,0.95,6,3,1,6,1,"planning",68
"364","subRE1_5","route 1",6,0.55,5,37,65,0.95,3053381,65,38,1,10000,2902,3,"see raw data",3036724,"planning",105.234375,"17:18:40",88,5,3,0.4,0.95,0.55,0.4,1,0.95,6,3,1,6,2,"planning",68
"365","subRE1_5","route 2",4,0.75,6,51,37,0.55,3071892,52,44,1,10000,4167,6,"see raw data",3053381,"planning",135.961538461538,"17:18:40",88,5,2,0.2,0.75,0.55,0.2,1,0.75,6,4,1,6,2,"planning",68
"366","subRE1_5","route 2",4,0.75,6,51,37,0.55,1643757,51,37,1,10000,2003,6,"see raw data",1627840,"baseline",138.56862745098,"17:18:40",88,5,2,0.2,0.75,0.55,0.2,1,0.75,6,4,1,6,1,"planning",68
"367","subRE1_5","route 2",3,0.95,7,65,14,0.2,3089408,67,50,1,10000,2130,6,"see raw data",3071892,"planning",125.530303030303,"17:18:40",88,5,3,0.75,0.95,0.2,0.75,1,0.95,6,3,1,6,2,"planning",68
"368","subRE1_5","route 2",3,0.95,7,65,14,0.2,1662191,65,43,1,10000,2664,6,"see raw data",1643757,"baseline",133.507692307692,"17:18:40",88,5,3,0.75,0.95,0.2,0.75,1,0.95,6,3,1,6,1,"planning",68
"369","subRE1_5","route 2",4,0.35,8,24,14,0.2,1674990,25,48,1,10000,2584,5,"see raw data",1662191,"baseline",133.916666666667,"17:18:40",88,5,1,0.15,0.35,0.2,0.15,1,0.35,5,4,1,5,1,"planning",68
"370","subRE1_5","route 2",4,0.35,8,24,14,0.2,3103841,25,55,1,10000,3850,5,"see raw data",3089408,"planning",131.36,"17:18:40",88,5,1,0.15,0.35,0.2,0.15,1,0.35,5,4,1,5,2,"planning",68
"371","subRE1_5","route 1",6,0.35,9,24,65,0.95,3120792,67,61,1,10000,1634,3,"see raw data",3103841,"planning",124.106060606061,"17:18:40",88,5,3,0.6,0.95,0.35,0.6,1,0.95,6,3,1,6,2,"planning",68
"372","subRE1_5","route 1",6,0.35,9,24,65,0.95,1691756,66,54,1,10000,2068,3,"see raw data",1674990,"baseline",120,"17:18:40",88,5,3,0.6,0.95,0.35,0.6,1,0.95,6,3,1,6,1,"planning",68
"373","subRE1_5","route 1",4,0.2,10,14,24,0.35,1705556,26,58,1,10000,1818,3,"see raw data",1691756,"baseline",198,"17:18:40",88,5,1,0.15,0.35,0.2,0.15,1,0.35,4,3,1,4,1,"planning",68
"374","subRE1_5","route 1",4,0.2,10,14,24,0.35,3170841,24,65,1,10000,38946,3,"see raw data",3120792,"planning",142.958333333333,"17:18:40",88,5,1,0.15,0.35,0.2,0.15,1,0.35,4,3,1,4,2,"planning",68
"375","subRE1_5","route 2",5,0.75,11,51,37,0.55,1742372,51,7,1,10000,2012,7,"see raw data",1726956,"baseline",127.627450980392,"17:18:40",88,5,2,0.2,0.75,0.55,0.2,1,0.75,7,5,1,7,1,"planning",68
"376","subRE1_5","route 2",5,0.75,11,51,37,0.55,3211125,52,7,1,10000,2468,7,"see raw data",3194459,"planning",140.843137254902,"17:18:40",88,5,2,0.2,0.75,0.55,0.2,1,0.75,7,5,1,7,2,"planning",68
"377","subRE1_5","route 2",4,0.75,12,51,14,0.2,1758390,51,13,1,10000,1817,6,"see raw data",1742372,"baseline",137.980392156863,"17:18:40",88,5,2,0.55,0.75,0.2,0.55,1,0.75,6,4,1,6,1,"planning",68
"378","subRE1_5","route 2",4,0.75,12,51,14,0.2,3226874,51,13,1,10000,1801,6,"see raw data",3211125,"planning",133.66,"17:18:40",88,5,2,0.55,0.75,0.2,0.55,1,0.75,6,4,1,6,2,"planning",68
"379","subRE1_5","route 2",3,0.95,13,65,24,0.35,3244408,66,18,1,10000,2188,5,"see raw data",3226874,"planning",127.723076923077,"17:18:40",88,5,2,0.6,0.95,0.35,0.6,1,0.95,5,3,1,5,2,"planning",68
"380","subRE1_5","route 2",3,0.95,13,65,24,0.35,1776140,65,18,1,10000,2186,5,"see raw data",1758390,"baseline",133.140625,"17:18:40",88,5,2,0.6,0.95,0.35,0.6,1,0.95,5,3,1,5,1,"planning",68
"381","subRE1_5","route 2",1,0.2,14,14,65,0.95,3255494,16,26,1,10000,2284,8,"see raw data",3244408,"planning",131.933333333333,"17:18:40",88,5,7,0.75,0.2,0.95,-0.75,0,0.95,8,1,1,8,2,"planning",68
"382","subRE1_5","route 2",1,0.2,14,14,65,0.95,1792174,15,26,1,10000,6096,8,"see raw data",1776140,"baseline",194.071428571429,"17:18:40",88,5,7,0.75,0.2,0.95,-0.75,0,0.95,8,1,1,8,1,"planning",68
"383","subRE1_5","route 1",4,0.35,15,24,51,0.75,3270875,52,30,1,10000,1800,3,"see raw data",3255494,"planning",125.803921568627,"17:18:40",88,5,1,0.4,0.75,0.35,0.4,1,0.75,4,3,1,4,2,"planning",68
"384","subRE1_5","route 1",4,0.35,15,24,51,0.75,1808673,51,30,1,10000,2546,3,"see raw data",1792174,"baseline",136.686274509804,"17:18:40",88,5,1,0.4,0.75,0.35,0.4,1,0.75,4,3,1,4,1,"planning",68
"385","subRE1_5","route 1",6,0.2,16,14,37,0.55,1824324,37,36,1,10000,3732,5,"see raw data",1808673,"baseline",120.675675675676,"17:18:40",88,5,1,0.35,0.55,0.2,0.35,1,0.55,6,5,1,6,1,"planning",68
"386","subRE1_5","route 1",6,0.2,16,14,37,0.55,3286224,37,36,1,10000,3217,5,"see raw data",3270875,"planning",133.805555555556,"17:18:40",88,5,1,0.35,0.55,0.2,0.35,1,0.55,6,5,1,6,2,"planning",68
"387","subRE1_5","route 1",5,0.2,17,14,65,0.95,3302807,65,41,1,10000,1873,3,"see raw data",3286224,"planning",117.2,"17:18:40",88,5,2,0.75,0.95,0.2,0.75,1,0.95,5,3,1,5,2,"planning",68
"388","subRE1_5","route 1",5,0.2,17,14,65,0.95,1842641,66,41,1,10000,2749,3,"see raw data",1824324,"baseline",130.318181818182,"17:18:40",88,5,2,0.75,0.95,0.2,0.75,1,0.95,5,3,1,5,1,"planning",68
"389","subRE1_5","route 1",5,0.35,18,24,65,0.95,3320457,66,46,1,10000,2035,4,"see raw data",3302807,"planning",131.784615384615,"17:18:40",88,5,1,0.6,0.95,0.35,0.6,1,0.95,5,4,1,5,2,"planning",68
"390","subRE1_5","route 1",5,0.35,18,24,65,0.95,1875090,65,46,1,10000,17018,4,"see raw data",1842641,"baseline",126.359375,"17:18:40",88,5,1,0.6,0.95,0.35,0.6,1,0.95,5,4,1,5,1,"planning",68
"391","subRE1_5","route 1",5,0.2,19,14,65,0.95,3337224,65,51,1,10000,1985,3,"see raw data",3320457,"planning",114.09375,"17:18:40",88,5,2,0.75,0.95,0.2,0.75,1,0.95,5,3,1,5,2,"planning",68
"392","subRE1_5","route 1",5,0.2,19,14,65,0.95,1916280,65,51,1,10000,25580,3,"see raw data",1875090,"baseline",133.046153846154,"17:18:40",88,5,2,0.75,0.95,0.2,0.75,1,0.95,5,3,1,5,1,"planning",68
"393","subRE1_5","route 1",7,0.55,20,37,65,0.95,3354707,65,58,1,10000,2069,4,"see raw data",3337224,"planning",127.184615384615,"17:18:40",88,5,3,0.4,0.95,0.55,0.4,1,0.95,7,4,1,7,2,"planning",68
"394","subRE1_5","route 1",7,0.55,20,37,65,0.95,1936007,67,58,1,10000,4380,4,"see raw data",1916280,"baseline",121.742424242424,"17:18:40",88,5,3,0.4,0.95,0.55,0.4,1,0.95,7,4,1,7,1,"planning",68
"395","subRE1_5","route 1",7,0.2,21,14,51,0.75,3370524,52,65,1,10000,2103,6,"see raw data",3354707,"planning",130.078431372549,"17:18:40",88,5,1,0.55,0.75,0.2,0.55,1,0.75,7,6,1,7,2,"planning",68
"396","subRE1_5","route 1",7,0.2,21,14,51,0.75,1952341,51,65,1,10000,2333,6,"see raw data",1936007,"baseline",137.901960784314,"17:18:40",88,5,1,0.55,0.75,0.2,0.55,1,0.75,7,6,1,7,1,"planning",68
"397","subRE1_5","route 1",4,0.55,22,37,65,0.95,3403792,65,4,1,10000,2030,3,"see raw data",3385957,"planning",131.515625,"17:18:40",88,5,1,0.4,0.95,0.55,0.4,1,0.95,4,3,1,4,2,"planning",68
"398","subRE1_5","route 1",4,0.55,22,37,65,0.95,2182859,66,4,1,10000,2384,3,"see raw data",2164407,"baseline",136.676923076923,"17:18:40",88,5,1,0.4,0.95,0.55,0.4,1,0.95,4,3,1,4,1,"planning",68
"399","subRE1_5","route 2",4,0.95,23,65,14,0.2,3422158,65,10,1,10000,2368,6,"see raw data",3403792,"planning",133.09375,"17:18:40",88,5,2,0.75,0.95,0.2,0.75,1,0.95,6,4,1,6,2,"planning",68
"400","subRE1_5","route 2",4,0.95,23,65,14,0.2,2206890,62,4,0,10000,2382,6,"see raw data",2182859,"baseline",151.145161290323,"17:18:40",88,5,2,0.75,0.95,0.2,0.75,1,0.95,6,4,1,6,1,"planning",68
"401","subRE1_5","route 2",3,0.55,24,37,24,0.35,2221108,38,11,1,10000,2068,7,"see raw data",2206890,"baseline",130.526315789474,"17:18:40",88,5,4,0.2,0.55,0.35,0.2,1,0.55,7,3,1,7,1,"planning",68
"402","subRE1_5","route 2",3,0.55,24,37,24,0.35,3436441,37,17,1,10000,2333,7,"see raw data",3422158,"planning",131.527777777778,"17:18:40",88,5,4,0.2,0.55,0.35,0.2,1,0.55,7,3,1,7,2,"planning",68
"403","subRE1_5","route 1",7,0.2,25,14,24,0.35,2234007,24,18,1,10000,2863,6,"see raw data",2221108,"baseline",126.25,"17:18:40",88,5,1,0.15,0.35,0.2,0.15,1,0.35,7,6,1,7,1,"planning",68
"404","subRE1_5","route 2",7,0.2,25,14,24,0.35,3449258,15,23,1,10000,3668,6,"see raw data",3436441,"planning",146,"17:18:40",88,5,1,0.15,0.2,0.35,-0.15,0,0.35,6,7,0,7,2,"planning",68
"405","subRE1_5","route 2",4,0.75,26,51,14,0.2,2249173,53,24,1,10000,2003,6,"see raw data",2234007,"baseline",118.307692307692,"17:18:40",88,5,2,0.55,0.75,0.2,0.55,1,0.75,6,4,1,6,1,"planning",68
"406","subRE1_5","route 2",4,0.75,26,51,14,0.2,3465157,51,29,1,10000,1901,6,"see raw data",3449258,"planning",134.72,"17:18:40",88,5,2,0.55,0.75,0.2,0.55,1,0.75,6,4,1,6,2,"planning",68
"407","subRE1_5","route 1",8,0.95,27,65,14,0.2,3478208,15,37,1,10000,3719,1,"see raw data",3465157,"planning",139.533333333333,"17:18:40",88,5,7,0.75,0.2,0.95,-0.75,0,0.95,8,1,1,8,2,"planning",68
"408","subRE1_5","route 1",8,0.95,27,65,14,0.2,2261690,15,32,1,10000,3353,1,"see raw data",2249173,"baseline",148.333333333333,"17:18:40",88,5,7,0.75,0.2,0.95,-0.75,0,0.95,8,1,1,8,1,"planning",68
"409","subRE1_5","route 1",7,0.35,28,24,51,0.75,3495308,51,44,1,10000,2383,6,"see raw data",3478208,"planning",149.34,"17:18:40",88,5,1,0.4,0.75,0.35,0.4,1,0.75,7,6,1,7,2,"planning",68
"410","subRE1_5","route 1",7,0.35,28,24,51,0.75,2277623,51,39,1,10000,2154,6,"see raw data",2261690,"baseline",130.352941176471,"17:18:40",88,5,1,0.4,0.75,0.35,0.4,1,0.75,7,6,1,7,1,"planning",68
"411","subRE1_5","route 2",3,0.95,29,65,24,0.35,2300878,49,39,0,10000,1633,4,"see raw data",2277623,"baseline",177.4375,"17:18:40",88,5,1,0.6,0.95,0.35,0.6,1,0.95,4,3,1,4,1,"planning",68
"412","subRE1_5","route 2",3,0.95,29,65,24,0.35,3513424,65,48,1,10000,2202,4,"see raw data",3495308,"planning",136.609375,"17:18:40",88,5,1,0.6,0.95,0.35,0.6,1,0.95,4,3,1,4,2,"planning",68
"413","subRE1_5","route 1",6,0.2,30,14,24,0.35,3526274,25,54,1,10000,2085,5,"see raw data",3513424,"planning",143.75,"17:18:40",88,5,1,0.15,0.35,0.2,0.15,1,0.35,6,5,1,6,2,"planning",68
"414","subRE1_5","route 1",6,0.2,30,14,24,0.35,2315957,25,45,1,10000,3109,5,"see raw data",2300878,"baseline",213.875,"17:18:40",88,5,1,0.15,0.35,0.2,0.15,1,0.35,6,5,1,6,1,"planning",68
"415","subRE1_5","route 2",3,0.55,31,37,14,0.2,2360390,38,50,1,10000,31634,5,"see raw data",2315957,"baseline",151.421052631579,"17:18:40",88,5,2,0.35,0.55,0.2,0.35,1,0.55,5,3,1,5,1,"planning",68
"416","subRE1_5","route 2",3,0.55,31,37,14,0.2,3541241,37,59,1,10000,2339,5,"see raw data",3526274,"planning",146.861111111111,"17:18:40",88,5,2,0.35,0.55,0.2,0.35,1,0.55,5,3,1,5,2,"planning",68
"417","subRE1_5","route 1",7,0.2,32,14,65,0.95,2381860,66,57,1,10000,6135,3,"see raw data",2360390,"baseline",126.692307692308,"17:18:40",88,5,4,0.75,0.95,0.2,0.75,1,0.95,7,3,1,7,1,"planning",68
"418","subRE1_5","route 1",7,0.2,32,14,65,0.95,3559491,65,66,1,10000,2100,3,"see raw data",3541241,"planning",141.030769230769,"17:18:40",88,5,4,0.75,0.95,0.2,0.75,1,0.95,7,3,1,7,2,"planning",68
"419","subRE1_5","route 2",6,0.75,33,51,14,0.2,2413507,52,7,1,10000,2417,7,"see raw data",2396704,"baseline",139.730769230769,"17:18:40",88,5,1,0.55,0.75,0.2,0.55,1,0.75,7,6,1,7,1,"planning",68
"420","subRE1_5","route 2",6,0.75,33,51,14,0.2,3593225,52,7,1,10000,1952,7,"see raw data",3576491,"planning",149.019607843137,"17:18:40",88,5,1,0.55,0.75,0.2,0.55,1,0.75,7,6,1,7,2,"planning",68
"421","subRE1_5","route 2",4,0.55,34,37,24,0.35,3607641,38,12,1,10000,1872,5,"see raw data",3593225,"planning",141.432432432432,"17:18:40",88,5,1,0.2,0.55,0.35,0.2,1,0.55,5,4,1,5,2,"planning",68
"422","subRE1_5","route 2",4,0.55,34,37,24,0.35,2428557,37,12,1,10000,2674,5,"see raw data",2413507,"baseline",130.621621621622,"17:18:40",88,5,1,0.2,0.55,0.35,0.2,1,0.55,5,4,1,5,1,"planning",68
"423","subRE1_5","route 2",4,0.95,35,65,37,0.55,3624924,65,17,1,10000,1667,5,"see raw data",3607641,"planning",130.261538461538,"17:18:40",88,5,1,0.4,0.95,0.55,0.4,1,0.95,5,4,1,5,2,"planning",68
"424","subRE1_5","route 2",4,0.95,35,65,37,0.55,2445840,66,17,1,10000,2699,5,"see raw data",2428557,"baseline",113.861538461538,"17:18:40",88,5,1,0.4,0.95,0.55,0.4,1,0.95,5,4,1,5,1,"planning",68
"425","subRE1_5","route 1",7,0.35,36,24,37,0.55,3640141,37,24,1,10000,2633,4,"see raw data",3624924,"planning",145.972972972973,"17:18:40",88,5,3,0.2,0.55,0.35,0.2,1,0.55,7,4,1,7,2,"planning",68
"426","subRE1_5","route 1",7,0.35,36,24,37,0.55,2459440,38,24,1,10000,2034,4,"see raw data",2445840,"baseline",119.054054054054,"17:18:40",88,5,3,0.2,0.55,0.35,0.2,1,0.55,7,4,1,7,1,"planning",68
"427","subRE1_5","route 2",3,0.95,37,65,14,0.2,3657477,66,31,1,10000,2198,7,"see raw data",3640141,"planning",124.461538461538,"17:18:40",88,5,4,0.75,0.95,0.2,0.75,1,0.95,7,3,1,7,2,"planning",68
"428","subRE1_5","route 2",3,0.95,37,65,14,0.2,2476609,65,31,1,10000,2428,7,"see raw data",2459440,"baseline",113.796875,"17:18:40",88,5,4,0.75,0.95,0.2,0.75,1,0.95,7,3,1,7,1,"planning",68
"429","subRE1_5","route 1",6,0.55,38,37,65,0.95,3676824,66,37,1,10000,3199,3,"see raw data",3657477,"planning",135.384615384615,"17:18:40",88,5,3,0.4,0.95,0.55,0.4,1,0.95,6,3,1,6,2,"planning",68
"430","subRE1_5","route 1",6,0.55,38,37,65,0.95,2495257,67,37,1,10000,3050,3,"see raw data",2476609,"baseline",127.611940298507,"17:18:40",88,5,3,0.4,0.95,0.55,0.4,1,0.95,6,3,1,6,1,"planning",68
"431","subRE1_5","route 2",4,0.95,39,65,24,0.35,2515073,65,43,1,10000,5050,6,"see raw data",2495257,"baseline",113.546875,"17:18:40",88,5,2,0.6,0.95,0.35,0.6,1,0.95,6,4,1,6,1,"planning",68
"432","subRE1_5","route 2",4,0.95,39,65,24,0.35,3694159,66,43,1,10000,2142,6,"see raw data",3676824,"planning",119.492307692308,"17:18:40",88,5,2,0.6,0.95,0.35,0.6,1,0.95,6,4,1,6,2,"planning",68
"433","subRE1_5","route 1",6,0.2,40,14,51,0.75,3710662,51,49,1,10000,2150,4,"see raw data",3694159,"planning",139.34,"17:18:40",88,5,2,0.55,0.75,0.2,0.55,1,0.75,6,4,1,6,2,"planning",68
"434","subRE1_5","route 1",6,0.2,40,14,51,0.75,2530491,51,49,1,10000,1896,4,"see raw data",2515073,"baseline",126.960784313725,"17:18:40",88,5,2,0.55,0.75,0.2,0.55,1,0.75,6,4,1,6,1,"planning",68
"435","subRE1_5","route 2",4,0.95,41,65,51,0.75,3728725,65,55,1,10000,2683,6,"see raw data",3710662,"planning",123.6,"17:18:40",88,5,2,0.2,0.95,0.75,0.2,1,0.95,6,4,1,6,2,"planning",68
"436","subRE1_5","route 2",4,0.95,41,65,51,0.75,2548074,66,55,1,10000,2851,6,"see raw data",2530491,"baseline",117.723076923077,"17:18:40",88,5,2,0.2,0.95,0.75,0.2,1,0.95,6,4,1,6,1,"planning",68
"437","subRE1_5","route 2",5,0.55,42,37,14,0.2,2562758,38,62,1,10000,2322,7,"see raw data",2548074,"baseline",144.594594594595,"17:18:40",88,5,2,0.35,0.55,0.2,0.35,1,0.55,7,5,1,7,1,"planning",68
"438","subRE1_5","route 2",5,0.55,42,37,14,0.2,3743392,37,62,1,10000,2314,7,"see raw data",3728725,"planning",131.472222222222,"17:18:40",88,5,2,0.35,0.55,0.2,0.35,1,0.55,7,5,1,7,2,"planning",68
"439","subRE1_5","route 2",6,0.95,43,65,24,0.35,3760274,66,69,1,10000,1536,7,"see raw data",3743392,"planning",127.938461538462,"17:18:40",88,5,1,0.6,0.95,0.35,0.6,1,0.95,7,6,1,7,2,"planning",68
"440","subRE1_5","route 2",6,0.95,43,65,24,0.35,2580990,65,69,1,10000,2668,7,"see raw data",2562758,"baseline",130.784615384615,"17:18:40",88,5,1,0.6,0.95,0.35,0.6,1,0.95,7,6,1,7,1,"planning",68
"441","subRE1_6","route 1",7,0.35,0,20,54,0.95,1216735,54,7,1,10000,2217,3,"see raw data",0,"planning",146.333333333333,"10:53:09",88,6,4,0.6,0.95,0.35,0.6,1,0.95,7,3,1,7,2,"planning",57
"442","subRE1_6","route 1",7,0.35,0,20,54,0.95,280051,54,7,1,10000,4683,3,"see raw data",259622,"baseline",159.851851851852,"10:53:09",88,6,4,0.6,0.95,0.35,0.6,1,0.95,7,3,1,7,1,"planning",57
"443","subRE1_6","route 1",7,0.75,1,43,54,0.95,1234249,54,14,1,10000,2366,4,"see raw data",1216735,"planning",152.792452830189,"10:53:09",88,6,3,0.2,0.95,0.75,0.2,1,0.95,7,4,1,7,2,"planning",57
"444","subRE1_6","route 1",7,0.75,1,43,54,0.95,301832,54,14,1,10000,6032,4,"see raw data",280051,"baseline",163.814814814815,"10:53:09",88,6,3,0.2,0.95,0.75,0.2,1,0.95,7,4,1,7,1,"planning",57
"445","subRE1_6","route 2",4,0.55,2,31,11,0.2,320562,31,20,1,10000,6400,6,"see raw data",301832,"baseline",172.233333333333,"10:53:09",88,6,2,0.35,0.55,0.2,0.35,1,0.55,6,4,1,6,1,"planning",57
"446","subRE1_6","route 2",4,0.55,2,31,11,0.2,1248213,31,20,1,10000,2183,6,"see raw data",1234249,"planning",144.129032258065,"10:53:09",88,6,2,0.35,0.55,0.2,0.35,1,0.55,6,4,1,6,2,"planning",57
"447","subRE1_6","route 2",5,0.2,3,11,43,0.75,332844,11,24,1,10000,3533,4,"see raw data",320562,"baseline",153.454545454545,"10:53:09",88,6,1,0.55,0.2,0.75,-0.55,0,0.75,4,5,0,5,1,"planning",57
"448","subRE1_6","route 2",5,0.2,3,11,43,0.75,1260028,12,24,1,10000,2450,4,"see raw data",1248213,"planning",213.636363636364,"10:53:09",88,6,1,0.55,0.2,0.75,-0.55,0,0.75,4,5,0,5,2,"planning",57
"449","subRE1_6","route 2",5,0.95,4,54,43,0.75,353541,54,31,1,10000,5498,7,"see raw data",332844,"baseline",154.888888888889,"10:53:09",88,6,2,0.2,0.95,0.75,0.2,1,0.95,7,5,1,7,1,"planning",57
"450","subRE1_6","route 2",5,0.95,4,54,43,0.75,1278708,55,31,1,10000,4335,7,"see raw data",1260028,"planning",138.222222222222,"10:53:09",88,6,2,0.2,0.95,0.75,0.2,1,0.95,7,5,1,7,2,"planning",57
"451","subRE1_6","route 1",6,0.55,5,31,54,0.95,1297473,54,37,1,10000,3583,3,"see raw data",1278708,"planning",150.603773584906,"10:53:09",88,6,3,0.4,0.95,0.55,0.4,1,0.95,6,3,1,6,2,"planning",57
"452","subRE1_6","route 1",6,0.55,5,31,54,0.95,375104,54,37,1,10000,6216,3,"see raw data",353541,"baseline",157,"10:53:09",88,6,3,0.4,0.95,0.55,0.4,1,0.95,6,3,1,6,1,"planning",57
"453","subRE1_6","route 2",4,0.75,6,43,31,0.55,392920,44,43,1,10000,3832,6,"see raw data",375104,"baseline",160.837209302326,"10:53:09",88,6,2,0.2,0.75,0.55,0.2,1,0.75,6,4,1,6,1,"planning",57
"454","subRE1_6","route 2",4,0.75,6,43,31,0.55,1313853,44,43,1,10000,2833,6,"see raw data",1297473,"planning",147.255813953488,"10:53:09",88,6,2,0.2,0.75,0.55,0.2,1,0.75,6,4,1,6,2,"planning",57
"455","subRE1_6","route 2",3,0.95,7,54,11,0.2,1330901,54,49,1,10000,2266,6,"see raw data",1313853,"planning",145.264150943396,"10:53:09",88,6,3,0.75,0.95,0.2,0.75,1,0.95,6,3,1,6,2,"planning",57
"456","subRE1_6","route 2",3,0.95,7,54,11,0.2,417215,54,49,1,10000,10132,6,"see raw data",392920,"baseline",137.37037037037,"10:53:09",88,6,3,0.75,0.95,0.2,0.75,1,0.95,6,3,1,6,1,"planning",57
"457","subRE1_6","route 2",4,0.35,8,20,11,0.2,1344382,21,54,1,10000,3300,5,"see raw data",1330901,"planning",153.3,"10:53:09",88,6,1,0.15,0.35,0.2,0.15,1,0.35,5,4,1,5,2,"planning",57
"458","subRE1_6","route 2",4,0.35,8,20,11,0.2,431629,20,54,1,10000,4066,5,"see raw data",417215,"baseline",177.45,"10:53:09",88,6,1,0.15,0.35,0.2,0.15,1,0.35,5,4,1,5,1,"planning",57
"459","subRE1_6","route 1",6,0.35,9,20,54,0.95,1360945,55,60,1,10000,2382,3,"see raw data",1344382,"planning",131.759259259259,"10:53:09",88,6,3,0.6,0.95,0.35,0.6,1,0.95,6,3,1,6,2,"planning",57
"460","subRE1_6","route 1",6,0.35,9,20,54,0.95,449378,55,60,1,10000,3383,3,"see raw data",431629,"baseline",137.592592592593,"10:53:09",88,6,3,0.6,0.95,0.35,0.6,1,0.95,6,3,1,6,1,"planning",57
"461","subRE1_6","route 1",4,0.2,10,11,20,0.35,462908,20,64,1,10000,3167,3,"see raw data",449378,"baseline",171.65,"10:53:09",88,6,1,0.15,0.35,0.2,0.15,1,0.35,4,3,1,4,1,"planning",57
"462","subRE1_6","route 1",4,0.2,10,11,20,0.35,1372945,21,64,1,10000,2049,3,"see raw data",1360945,"planning",139.05,"10:53:09",88,6,1,0.15,0.35,0.2,0.15,1,0.35,4,3,1,4,2,"planning",57
"463","subRE1_6","route 2",5,0.75,11,43,31,0.55,1417670,43,7,1,10000,2285,7,"see raw data",1401589,"planning",150.761904761905,"10:53:09",88,6,2,0.2,0.75,0.55,0.2,1,0.75,7,5,1,7,2,"planning",57
"464","subRE1_6","route 2",5,0.75,11,43,31,0.55,530715,43,7,1,10000,2499,7,"see raw data",515016,"baseline",144.93023255814,"10:53:09",88,6,2,0.2,0.75,0.55,0.2,1,0.75,7,5,1,7,1,"planning",57
"465","subRE1_6","route 2",4,0.75,12,43,11,0.2,546812,43,13,1,10000,2750,6,"see raw data",530715,"baseline",153.860465116279,"10:53:09",88,6,2,0.55,0.75,0.2,0.55,1,0.75,6,4,1,6,1,"planning",57
"466","subRE1_6","route 2",4,0.75,12,43,11,0.2,1433701,43,13,1,10000,2083,6,"see raw data",1417670,"planning",162.813953488372,"10:53:09",88,6,2,0.55,0.75,0.2,0.55,1,0.75,6,4,1,6,2,"planning",57
"467","subRE1_6","route 2",3,0.95,13,54,20,0.35,563726,55,18,1,10000,2549,5,"see raw data",546812,"baseline",139.5,"10:53:09",88,6,2,0.6,0.95,0.35,0.6,1,0.95,5,3,1,5,1,"planning",57
"468","subRE1_6","route 2",3,0.95,13,54,20,0.35,1450948,54,18,1,10000,2699,5,"see raw data",1433701,"planning",141.685185185185,"10:53:09",88,6,2,0.6,0.95,0.35,0.6,1,0.95,5,3,1,5,2,"planning",57
"469","subRE1_6","route 2",1,0.2,14,11,54,0.95,1463498,11,26,1,10000,3566,8,"see raw data",1450948,"planning",151.545454545455,"10:53:09",88,6,7,0.75,0.2,0.95,-0.75,0,0.95,8,1,1,8,2,"planning",57
"470","subRE1_6","route 2",1,0.2,14,11,54,0.95,575774,11,26,1,10000,3483,8,"see raw data",563726,"baseline",138.181818181818,"10:53:09",88,6,7,0.75,0.2,0.95,-0.75,0,0.95,8,1,1,8,1,"planning",57
"471","subRE1_6","route 1",4,0.35,15,20,43,0.75,592489,43,30,1,10000,3732,3,"see raw data",575774,"baseline",136.813953488372,"10:53:09",88,6,1,0.4,0.75,0.35,0.4,1,0.75,4,3,1,4,1,"planning",57
"472","subRE1_6","route 1",4,0.35,15,20,43,0.75,1479243,43,30,1,10000,2349,3,"see raw data",1463498,"planning",148.53488372093,"10:53:09",88,6,1,0.4,0.75,0.35,0.4,1,0.75,4,3,1,4,2,"planning",57
"473","subRE1_6","route 2",6,0.2,16,11,31,0.55,1491575,11,35,1,10000,3199,5,"see raw data",1479243,"planning",174.9,"10:53:09",88,6,1,0.35,0.2,0.55,-0.35,0,0.55,5,6,0,6,2,"planning",57
"474","subRE1_6","route 1",6,0.2,16,11,31,0.55,611170,32,36,1,10000,7732,5,"see raw data",592489,"baseline",128.483870967742,"10:53:09",88,6,1,0.35,0.55,0.2,0.35,1,0.55,6,5,1,6,1,"planning",57
"475","subRE1_6","route 2",5,0.2,17,11,54,0.95,1506839,12,38,1,10000,5132,3,"see raw data",1491575,"planning",271.090909090909,"10:53:09",88,6,2,0.75,0.2,0.95,-0.75,0,0.95,3,5,0,5,2,"planning",57
"476","subRE1_6","route 1",5,0.2,17,11,54,0.95,629150,54,41,1,10000,3199,3,"see raw data",611170,"baseline",146.592592592593,"10:53:09",88,6,2,0.75,0.95,0.2,0.75,1,0.95,5,3,1,5,1,"planning",57
"477","subRE1_6","route 2",5,0.35,18,20,54,0.95,641698,20,45,1,10000,2549,4,"see raw data",629150,"baseline",150.842105263158,"10:53:09",88,6,1,0.6,0.35,0.95,-0.6,0,0.95,4,5,0,5,1,"planning",57
"478","subRE1_6","route 1",5,0.35,18,20,54,0.95,1524586,54,43,1,10000,3933,4,"see raw data",1506839,"planning",125.150943396226,"10:53:09",88,6,1,0.6,0.95,0.35,0.6,1,0.95,5,4,1,5,2,"planning",57
"479","subRE1_6","route 1",5,0.2,19,11,54,0.95,1541600,55,48,1,10000,2482,3,"see raw data",1524586,"planning",139.796296296296,"10:53:09",88,6,2,0.75,0.95,0.2,0.75,1,0.95,5,3,1,5,2,"planning",57
"480","subRE1_6","route 1",5,0.2,19,11,54,0.95,658262,54,50,1,10000,2199,3,"see raw data",641698,"baseline",140.528301886792,"10:53:09",88,6,2,0.75,0.95,0.2,0.75,1,0.95,5,3,1,5,1,"planning",57
"481","subRE1_6","route 1",7,0.55,20,31,54,0.95,675709,54,57,1,10000,3066,4,"see raw data",658262,"baseline",139.481481481481,"10:53:09",88,6,3,0.4,0.95,0.55,0.4,1,0.95,7,4,1,7,1,"planning",57
"482","subRE1_6","route 1",7,0.55,20,31,54,0.95,1557448,54,55,1,10000,2065,4,"see raw data",1541600,"planning",126.396226415094,"10:53:09",88,6,3,0.4,0.95,0.55,0.4,1,0.95,7,4,1,7,2,"planning",57
"483","subRE1_6","route 1",7,0.2,21,11,43,0.75,1573846,43,62,1,10000,2999,6,"see raw data",1557448,"planning",144.809523809524,"10:53:09",88,6,1,0.55,0.75,0.2,0.55,1,0.75,7,6,1,7,2,"planning",57
"484","subRE1_6","route 2",7,0.2,21,11,43,0.75,686824,11,63,1,10000,2567,6,"see raw data",675709,"baseline",153,"10:53:09",88,6,1,0.55,0.2,0.75,-0.55,0,0.75,6,7,0,7,1,"planning",57
"485","subRE1_6","route 2",4,0.55,22,31,54,0.95,1614339,31,3,1,10000,2133,3,"see raw data",1600658,"planning",144.433333333333,"10:53:09",88,6,1,0.4,0.55,0.95,-0.4,0,0.95,3,4,0,4,2,"planning",57
"486","subRE1_6","route 2",4,0.55,22,31,54,0.95,757245,31,3,1,10000,3250,3,"see raw data",742247,"baseline",153.709677419355,"10:53:09",88,6,1,0.4,0.55,0.95,-0.4,0,0.95,3,4,0,4,1,"planning",57
"487","subRE1_6","route 2",4,0.95,23,54,11,0.2,773159,54,9,1,10000,2150,6,"see raw data",757245,"baseline",129.849056603774,"10:53:09",88,6,2,0.75,0.95,0.2,0.75,1,0.95,6,4,1,6,1,"planning",57
"488","subRE1_6","route 2",4,0.95,23,54,11,0.2,1631436,55,9,1,10000,2333,6,"see raw data",1614339,"planning",144.722222222222,"10:53:09",88,6,2,0.75,0.95,0.2,0.75,1,0.95,6,4,1,6,2,"planning",57
"489","subRE1_6","route 2",3,0.55,24,31,20,0.35,1646534,31,16,1,10000,2968,7,"see raw data",1631436,"planning",166.633333333333,"10:53:09",88,6,4,0.2,0.55,0.35,0.2,1,0.55,7,3,1,7,2,"planning",57
"490","subRE1_6","route 2",3,0.55,24,31,20,0.35,787057,32,16,1,10000,2333,7,"see raw data",773159,"baseline",148.387096774194,"10:53:09",88,6,4,0.2,0.55,0.35,0.2,1,0.55,7,3,1,7,1,"planning",57
"491","subRE1_6","route 1",7,0.2,25,11,20,0.35,1659783,20,23,1,10000,2683,6,"see raw data",1646534,"planning",175.421052631579,"10:53:09",88,6,1,0.15,0.35,0.2,0.15,1,0.35,7,6,1,7,2,"planning",57
"492","subRE1_6","route 1",7,0.2,25,11,20,0.35,801453,21,23,1,10000,4250,6,"see raw data",787057,"baseline",154.85,"10:53:09",88,6,1,0.15,0.35,0.2,0.15,1,0.35,7,6,1,7,1,"planning",57
"493","subRE1_6","route 2",4,0.75,26,43,11,0.2,1674980,43,29,1,10000,1817,6,"see raw data",1659783,"planning",149.190476190476,"10:53:09",88,6,2,0.55,0.75,0.2,0.55,1,0.75,6,4,1,6,2,"planning",57
"494","subRE1_6","route 2",4,0.75,26,43,11,0.2,816968,43,29,1,10000,2132,6,"see raw data",801453,"baseline",151.238095238095,"10:53:09",88,6,2,0.55,0.75,0.2,0.55,1,0.75,6,4,1,6,1,"planning",57
"495","subRE1_6","route 1",8,0.95,27,54,11,0.2,1686462,11,37,1,10000,2517,1,"see raw data",1674980,"planning",174.181818181818,"10:53:09",88,6,7,0.75,0.2,0.95,-0.75,0,0.95,8,1,1,8,2,"planning",57
"496","subRE1_6","route 1",8,0.95,27,54,11,0.2,831716,11,37,1,10000,6015,1,"see raw data",816968,"baseline",158.2,"10:53:09",88,6,7,0.75,0.2,0.95,-0.75,0,0.95,8,1,1,8,1,"planning",57
"497","subRE1_6","route 2",7,0.35,28,20,43,0.75,1698460,20,43,1,10000,2034,6,"see raw data",1686462,"planning",149.3,"10:53:09",88,6,1,0.4,0.35,0.75,-0.4,0,0.75,6,7,0,7,2,"planning",57
"498","subRE1_6","route 1",7,0.35,28,20,43,0.75,847631,43,44,1,10000,2950,6,"see raw data",831716,"baseline",141.214285714286,"10:53:09",88,6,1,0.4,0.75,0.35,0.4,1,0.75,7,6,1,7,1,"planning",57
"499","subRE1_6","route 1",3,0.95,29,54,20,0.35,862627,20,47,1,10000,4816,4,"see raw data",847631,"baseline",158.736842105263,"10:53:09",88,6,1,0.6,0.35,0.95,-0.6,0,0.95,3,4,0,4,1,"planning",57
"500","subRE1_6","route 1",3,0.95,29,54,20,0.35,1710741,20,46,1,10000,2317,4,"see raw data",1698460,"planning",136.842105263158,"10:53:09",88,6,1,0.6,0.35,0.95,-0.6,0,0.95,3,4,0,4,2,"planning",57
"501","subRE1_6","route 1",6,0.2,30,11,20,0.35,875591,21,53,1,10000,2982,5,"see raw data",862627,"baseline",148.25,"10:53:09",88,6,1,0.15,0.35,0.2,0.15,1,0.35,6,5,1,6,1,"planning",57
"502","subRE1_6","route 1",6,0.2,30,11,20,0.35,1722556,21,52,1,10000,2033,5,"see raw data",1710741,"planning",125.85,"10:53:09",88,6,1,0.15,0.35,0.2,0.15,1,0.35,6,5,1,6,2,"planning",57
"503","subRE1_6","route 2",3,0.55,31,31,11,0.2,889289,32,58,1,10000,2332,5,"see raw data",875591,"baseline",137.064516129032,"10:53:09",88,6,2,0.35,0.55,0.2,0.35,1,0.55,5,3,1,5,1,"planning",57
"504","subRE1_6","route 2",3,0.55,31,31,11,0.2,1736421,31,57,1,10000,2116,5,"see raw data",1722556,"planning",151.033333333333,"10:53:09",88,6,2,0.35,0.55,0.2,0.35,1,0.55,5,3,1,5,2,"planning",57
"505","subRE1_6","route 1",7,0.2,32,11,54,0.95,1752252,54,64,1,10000,1516,3,"see raw data",1736421,"planning",138.62962962963,"10:53:09",88,6,4,0.75,0.95,0.2,0.75,1,0.95,7,3,1,7,2,"planning",57
"506","subRE1_6","route 1",7,0.2,32,11,54,0.95,905869,55,65,1,10000,2816,3,"see raw data",889289,"baseline",127.148148148148,"10:53:09",88,6,4,0.75,0.95,0.2,0.75,1,0.95,7,3,1,7,1,"planning",57
"507","subRE1_6","route 1",6,0.75,33,43,11,0.2,1790779,11,6,1,10000,2666,7,"see raw data",1779181,"planning",155,"10:53:09",88,6,1,0.55,0.2,0.75,-0.55,0,0.75,6,7,0,7,2,"planning",57
"508","subRE1_6","route 1",6,0.75,33,43,11,0.2,946695,12,6,1,10000,4383,7,"see raw data",933548,"baseline",156.916666666667,"10:53:09",88,6,1,0.55,0.2,0.75,-0.55,0,0.75,6,7,0,7,1,"planning",57
"509","subRE1_6","route 2",4,0.55,34,31,20,0.35,960377,31,11,1,10000,2099,5,"see raw data",946695,"baseline",142.166666666667,"10:53:09",88,6,1,0.2,0.55,0.35,0.2,1,0.55,5,4,1,5,1,"planning",57
"510","subRE1_6","route 2",4,0.55,34,31,20,0.35,1805426,31,11,1,10000,2284,5,"see raw data",1790779,"planning",175.290322580645,"10:53:09",88,6,1,0.2,0.55,0.35,0.2,1,0.55,5,4,1,5,2,"planning",57
"511","subRE1_6","route 1",4,0.95,35,54,31,0.55,974758,32,15,1,10000,2833,5,"see raw data",960377,"baseline",146.774193548387,"10:53:09",88,6,1,0.4,0.55,0.95,-0.4,0,0.95,4,5,0,5,1,"planning",57
"512","subRE1_6","route 1",4,0.95,35,54,31,0.55,1820058,31,15,1,10000,2100,5,"see raw data",1805426,"planning",172.766666666667,"10:53:09",88,6,1,0.4,0.55,0.95,-0.4,0,0.95,4,5,0,5,2,"planning",57
"513","subRE1_6","route 1",7,0.35,36,20,31,0.55,1834222,32,22,1,10000,2200,4,"see raw data",1820058,"planning",159.645161290323,"10:53:09",88,6,3,0.2,0.55,0.35,0.2,1,0.55,7,4,1,7,2,"planning",57
"514","subRE1_6","route 1",7,0.35,36,20,31,0.55,987739,31,22,1,10000,2050,4,"see raw data",974758,"baseline",127.935483870968,"10:53:09",88,6,3,0.2,0.55,0.35,0.2,1,0.55,7,4,1,7,1,"planning",57
"515","subRE1_6","route 2",3,0.95,37,54,11,0.2,1005636,55,29,1,10000,3749,7,"see raw data",987739,"baseline",133.018181818182,"10:53:09",88,6,4,0.75,0.95,0.2,0.75,1,0.95,7,3,1,7,1,"planning",57
"516","subRE1_6","route 2",3,0.95,37,54,11,0.2,1851103,54,29,1,10000,2266,7,"see raw data",1834222,"planning",141.685185185185,"10:53:09",88,6,4,0.75,0.95,0.2,0.75,1,0.95,7,3,1,7,2,"planning",57
"517","subRE1_6","route 1",6,0.55,38,31,54,0.95,1021667,55,35,1,10000,2050,3,"see raw data",1005636,"baseline",129.611111111111,"10:53:09",88,6,3,0.4,0.95,0.55,0.4,1,0.95,6,3,1,6,1,"planning",57
"518","subRE1_6","route 1",6,0.55,38,31,54,0.95,1867500,55,35,1,10000,2266,3,"see raw data",1851103,"planning",133.314814814815,"10:53:09",88,6,3,0.4,0.95,0.55,0.4,1,0.95,6,3,1,6,2,"planning",57
"519","subRE1_6","route 2",4,0.95,39,54,20,0.35,1885514,54,41,1,10000,4483,6,"see raw data",1867500,"planning",122.574074074074,"10:53:09",88,6,2,0.6,0.95,0.35,0.6,1,0.95,6,4,1,6,2,"planning",57
"520","subRE1_6","route 2",4,0.95,39,54,20,0.35,1038114,55,41,1,10000,2883,6,"see raw data",1021667,"baseline",125.259259259259,"10:53:09",88,6,2,0.6,0.95,0.35,0.6,1,0.95,6,4,1,6,1,"planning",57
