"","uid","itemNo","valence","internal_node_id","trial_type","chosen_attr","stimulus","nTimeouts","chosen_attr_type","time_elapsed","rt","response","trial_index","timedout","taskNo","trialNo","condition","totalTimeJsPsych","intStartTime","intEndTime","nTrials","ID","interpersonal","category","subcategory","event","internalChosen","globalChosen","internalGlobalChosen","internalSpecificChosen","externalGlobalChosen","externalSpecificChosen"
"1","subCA1_1",0,"negative","0.0-2.0-0.0-0.0","html-button-response-ca","I probably did something recently to annoy them","You find out that someone you consider a friend has talked about you negatively behind your back",0,"internal_specific",120502,19336,1,3,FALSE,0,0,"psychoed",2189335,1634242.8,2034667.40000001,64,1,"yes","friends","personal qualities","You find out that someone you consider a friend has talked about you negatively behind your back",1,0,0,1,0,0
"2","subCA1_1",1,"positive","0.0-2.0-0.1-0.1","html-button-response-ca","People at work generally reach out from time to time","Someone from work invites you out for a cup of coffee",0,"external_global",132687,10676,1,4,FALSE,0,1,"psychoed",2189335,1634242.8,2034667.40000001,64,1,"yes","colleagues","reaching out","Someone from work invites you out for a cup of coffee",0,1,0,0,1,0
"3","subCA1_1",18,"negative","0.0-2.0-0.10-0.10","html-button-response-ca","I'm disorganised and inefficient","You didn't get the amount of work done you needed to",0,"internal_global",262978,12944,1,13,FALSE,0,10,"psychoed",2189335,1634242.8,2034667.40000001,64,1,"no","general performance (job)","non-social","You didn't get the amount of work done you needed to",1,1,1,0,0,0
"4","subCA1_1",22,"negative","0.0-2.0-0.11-0.11","html-button-response-ca","I haven't really made an effort to talk to my colleagues recently","You walk past a cafe close to work and see your some of your colleagues are meeting for lunch without you",0,"internal_specific",278906,14420,2,14,FALSE,0,11,"psychoed",2189335,1634242.8,2034667.40000001,64,1,"yes","colleagues","reaching out","You walk past a cafe close to work and see your some of your colleagues are meeting for lunch without you",1,0,0,1,0,0
"5","subCA1_1",24,"positive","0.0-2.0-0.12-0.12","html-button-response-ca","This particular friend happens to have a similar sense of humour to me","A friend tells you you make them laugh",0,"external_specific",293896,13486,1,15,FALSE,0,12,"psychoed",2189335,1634242.8,2034667.40000001,64,1,"yes","friends","personal qualities","A friend tells you you make them laugh",0,0,0,0,0,1
"6","subCA1_1",32,"positive","0.0-2.0-0.13-0.13","html-button-response-ca","I'm the kind of friend people value","A friend tells you speaking with you always makes them feel better",0,"internal_global",303054,7644,1,16,FALSE,0,13,"psychoed",2189335,1634242.8,2034667.40000001,64,1,"yes","friends","personal qualities","A friend tells you speaking with you always makes them feel better",1,1,1,0,0,0
"7","subCA1_1",39,"positive","0.0-2.0-0.14-0.14","html-button-response-ca","Recently, I've been performing well in my job","You find out that you have been put forward for a leadership position at work",0,"internal_specific",324741,20183,2,17,FALSE,0,14,"psychoed",2189335,1634242.8,2034667.40000001,64,1,"no","formal assessment (job)","non-social","You find out that you have been put forward for a leadership position at work",1,0,0,1,0,0
"8","subCA1_1",41,"negative","0.0-2.0-0.15-0.15","html-button-response-ca","I probably submitted my application incorrectly somehow","You submited an application to join a local community forum but haven't heard anything back",0,"internal_specific",353897,27653,1,18,FALSE,0,15,"psychoed",2189335,1634242.8,2034667.40000001,64,1,"no","general functioning (everyday life: easier task)","getting along (semi-social)","You submited an application to join a local community forum but haven't heard anything back",1,0,0,1,0,0
"9","subCA1_1",43,"positive","0.0-2.0-0.16-0.16","html-button-response-ca","I'm a good friend and people appreciate that","Someone you are close to has sent you a card thanking you for being there for them during a difficult time",0,"internal_global",364158,6812,3,20,FALSE,0,16,"psychoed",2189335,1634242.8,2034667.40000001,64,1,"yes","close relationship","reaching out","Someone you are close to has sent you a card thanking you for being there for them during a difficult time",1,1,1,0,0,0
"10","subCA1_1",54,"positive","0.0-2.0-0.17-0.17","html-button-response-ca","On this particular occasion, I did a good job","You find out someone has contacted your employer to praise work you did for them",0,"internal_specific",388579,22913,0,21,FALSE,0,17,"psychoed",2189335,1634242.8,2034667.40000001,64,1,"no","general performance (job)","semi-social","You find out someone has contacted your employer to praise work you did for them",1,0,0,1,0,0
"11","subCA1_1",62,"positive","0.0-2.0-0.18-0.18","html-button-response-ca","I've been making a particular effort recently to spend time learning new things","You successfully practice saying some phrases of a new language you are trying to learn",0,"internal_specific",396688,6606,0,22,FALSE,0,18,"psychoed",2189335,1634242.8,2034667.40000001,64,1,"no","general functioning (everyday life: harder task)","life activities","You practice saying some phrases of a new language you are trying to learn",1,0,0,1,0,0
"12","subCA1_1",68,"positive","0.0-2.0-0.19-0.19","html-button-response-ca","I have been helping this person out with something private recently","Someone you are close to tells you they trust you",0,"internal_specific",414015,15824,2,23,FALSE,0,19,"psychoed",2189335,1634242.8,2034667.40000001,64,1,"yes","close relationship","personal qualities","Someone you are close to tells you they trust you",1,0,0,1,0,0
"13","subCA1_1",2,"negative","0.0-2.0-0.2-0.2","html-button-response-ca","My friend is probably just too busy to respond right now","You message your friend to ask for advice but they don't reply",0,"external_specific",140264,6072,2,5,FALSE,0,2,"psychoed",2189335,1634242.8,2034667.40000001,64,1,"yes","friends","reaching out","You message your friend to ask for advice but they don't reply",0,0,0,0,0,1
"14","subCA1_1",72,"negative","0.0-2.0-0.20-0.20","html-button-response-ca","People are often not interested in what other people have to say at meetings","You speak during a community meeting but feel like people aren't interested in what you have to say",0,"external_global",422332,6813,2,24,FALSE,0,20,"psychoed",2189335,1634242.8,2034667.40000001,64,1,"yes","contemporaries (not known well)","feedback/responsibility","You speak during a community meeting but feel like people aren't interested in what you have to say",0,1,0,0,1,0
"15","subCA1_1",74,"negative","0.0-2.0-0.21-0.21","html-button-response-ca","On this occasion, I wasn't paying enough attention","You washed your clothes on the wrong setting and the colours have run",0,"internal_specific",429857,6022,1,25,FALSE,0,21,"psychoed",2189335,1634242.8,2034667.40000001,64,1,"no","general functioning (everyday life: easier task)","self-care","You washed your clothes on the wrong setting and the colours have run",1,0,0,1,0,0
"16","subCA1_1",79,"negative","0.0-2.0-0.22-0.22","html-button-response-ca","My friend was probably busy that day thinking about something else","You see a very close friend and wave at them but they don't wave back",0,"external_specific",439615,8254,2,26,FALSE,0,22,"psychoed",2189335,1634242.8,2034667.40000001,64,1,"yes","close relationship","reaching out","You see a very close friend and wave at them but they don't wave back",0,0,0,0,0,1
"17","subCA1_1",93,"positive","0.0-2.0-0.23-0.23","html-button-response-ca","For this piece of work, I probably tried particularly hard","A colleague comments on the high quality of your recent work",0,"internal_specific",447045,5926,0,27,FALSE,0,23,"psychoed",2189335,1634242.8,2034667.40000001,64,1,"no","general performance (job)","semi-social","A colleague comments on the high quality of your recent work",1,0,0,1,0,0
"18","subCA1_1",99,"negative","0.0-2.0-0.24-0.24","html-button-response-ca","Recently, I haven't been involved much in community events","You want to be nominated for a role in your local community group but no one suggests you",0,"internal_specific",455661,7112,1,28,FALSE,0,24,"psychoed",2189335,1634242.8,2034667.40000001,64,1,"yes","contemporaries (not known well)","feedback/responsibility","You want to be nominated for a role in your local community group but no one suggests you",1,0,0,1,0,0
"19","subCA1_1",101,"positive","0.0-2.0-0.25-0.25","html-button-response-ca","I'm the sort of person people like to have on their team","Someone from work tells you they would like to be on your team for a work social event",0,"internal_global",468660,11496,1,29,FALSE,0,25,"psychoed",2189335,1634242.8,2034667.40000001,64,1,"yes","colleagues","reaching out","Someone from work tells you they would like to be on your team for a work social event",1,1,1,0,0,0
"20","subCA1_1",104,"positive","0.0-2.0-0.26-0.26","html-button-response-ca","It's not uncommon for people to do nice things for their friends","Someone you care about takes time out of their busy day to check in on you ",0,"external_global",479245,9082,2,30,FALSE,0,26,"psychoed",2189335,1634242.8,2034667.40000001,64,1,"yes","close relationship","reaching out","Someone you care about takes time out of their busy day to check in on you",0,1,0,0,1,0
"21","subCA1_1",105,"negative","0.0-2.0-0.27-0.27","html-button-response-ca","On this occasion, I let myself be distracted by something unimportant","You forget you put dinner in the oven and it burns",0,"internal_specific",488079,7332,1,31,FALSE,0,27,"psychoed",2189335,1634242.8,2034667.40000001,64,1,"no","general functioning (everyday life: easier task)","self-care","You forget you put dinner in the oven and it burns",1,0,0,1,0,0
"22","subCA1_1",112,"negative","0.0-2.0-0.28-0.28","html-button-response-ca","People often carelessly say things about others when they think they can't hear them","You overhear a colleague telling someone else they don't like you",0,"external_global",501545,11962,2,32,FALSE,0,28,"psychoed",2189335,1634242.8,2034667.40000001,64,1,"yes","colleagues","personal qualities","You overhear a colleague telling someone else they don't like you",0,1,0,0,1,0
"23","subCA1_1",113,"positive","0.0-2.0-0.29-0.29","html-button-response-ca","People generally like to get lots of feedback","A colleague tells you they particularly appreciate your feedback on their work, as it is valuable",0,"external_global",509048,5998,0,33,FALSE,0,29,"psychoed",2189335,1634242.8,2034667.40000001,64,1,"yes","colleagues","personal qualities","A colleague tells you they particularly appreciate your feedback on their work, as it is valuable",0,1,0,0,1,0
"24","subCA1_1",3,"negative","0.0-2.0-0.3-0.3","html-button-response-ca","I'm hopeless at remembering things","You return from the shops without something important from your shopping list",0,"internal_global",151499,9730,1,6,FALSE,0,3,"psychoed",2189335,1634242.8,2034667.40000001,64,1,"no","general functioning (everyday life: harder task)","life activities","You return from the shops without something important from your shopping list",1,1,1,0,0,0
"25","subCA1_1",116,"positive","0.0-2.0-0.30-0.30","html-button-response-ca","I worked hard on a recent piece of work","You find out a colleague has nominated you for a performance award at work",0,"internal_specific",517627,7075,0,34,FALSE,0,30,"psychoed",2189335,1634242.8,2034667.40000001,64,1,"no","formal assessment (job)","semi-social","You find out a colleague has nominated you for a performance award at work",1,0,0,1,0,0
"26","subCA1_1",127,"positive","0.0-2.0-0.31-0.31","html-button-response-ca","This particular class are kind","You present your work during your evening class and get lots of praise from your classmates",0,"external_specific",528811,9676,2,35,FALSE,0,31,"psychoed",2189335,1634242.8,2034667.40000001,64,1,"yes","contemporaries (not known well)","feedback/responsibility","You present your work during your evening class and get lots of praise from your classmates",0,0,0,0,0,1
"27","subCA1_1",5,"negative","0.0-2.0-0.4-0.4","html-button-response-ca","There are always times when life gets in the way of things we'd like to prioritise","You'd like to be more engaged in your local community",0,"external_global",162277,9272,2,7,FALSE,0,4,"psychoed",2189335,1634242.8,2034667.40000001,64,1,"no","general functioning (everyday life: harder task)","getting along (semi-social)","You'd like to be more engaged in your local community",0,1,0,0,1,0
"28","subCA1_1",7,"negative","0.0-2.0-0.5-0.5","html-button-response-ca","There probably happened to be a better suggestion put forward that day","Your suggestion for a community social event receives the lowest number of votes",0,"external_specific",174222,10441,0,8,FALSE,0,5,"psychoed",2189335,1634242.8,2034667.40000001,64,1,"yes","contemporaries (not known well)","feedback/responsibility","Your suggestion for a community social event receives the lowest number of votes",0,0,0,0,0,1
"29","subCA1_1",8,"positive","0.0-2.0-0.6-0.6","html-button-response-ca","Recently, I did well on a particular piece of work","You receive anonymised feedback on your work performance by colleagues, and it's very complimentary",0,"internal_specific",183694,7963,3,9,FALSE,0,6,"psychoed",2189335,1634242.8,2034667.40000001,64,1,"no","formal assessment (job)","non-social","You receive anonymised feedback on your work performance by colleagues, and it's very complimentary",1,0,0,1,0,0
"30","subCA1_1",13,"negative","0.0-2.0-0.7-0.7","html-button-response-ca","For this particular occasion, they were only able to invite a small number of people","Someone you feel very close to is having a birthday dinner but hasn't invited you",0,"external_specific",201993,16796,2,10,FALSE,0,7,"psychoed",2189335,1634242.8,2034667.40000001,64,1,"yes","close relationship","reaching out","Someone you feel very close to is having a birthday dinner but hasn't invited you",0,0,0,0,0,1
"31","subCA1_1",15,"positive","0.0-2.0-0.8-0.8","html-button-response-ca","I'm good at my job","You find out that your manager wants to put you forward for promotion at work",0,"internal_global",237658,34160,1,11,FALSE,0,8,"psychoed",2189335,1634242.8,2034667.40000001,64,1,"no","general performance (job)","non-social","You find out that your manager wants to put you forward for promotion at work",1,1,1,0,0,0
"32","subCA1_1",17,"negative","0.0-2.0-0.9-0.9","html-button-response-ca","They were probably preoccupied and didn't see me","You smile at someone across the street you recognise, but they don't smile back",0,"external_specific",248530,9366,3,12,FALSE,0,9,"psychoed",2189335,1634242.8,2034667.40000001,64,1,"yes","contemporaries (not known well)","reaching out","You smile at someone across the street you recognise, but they don't smile back",0,0,0,0,0,1
"33","subCA1_1",11,"positive","0.0-20.0-0.0-0.0","html-button-response-ca","On this occasion, I knew a lot about the topics that came up","You take part in a quiz at work and get lots of answers right, so your team wins",0,"internal_specific",1922122,5543,2,186,FALSE,1,0,"psychoed",2189335,1634242.8,2034667.40000001,64,1,"no","formal assessment (academic)","semi-social","You take part in a quiz at work and get lots of answers right, so your team wins",1,0,0,1,0,0
"34","subCA1_1",21,"positive","0.0-20.0-0.1-0.1","html-button-response-ca","I can usually get my head around straightforward problems","Your neighbour asks you to help them with their maths homework, and you do a good job explaining the problems to them",0,"internal_specific",1931483,7857,1,187,FALSE,1,1,"psychoed",2189335,1634242.8,2034667.40000001,64,1,"no","general performance (academic)","semi-social","Your neighbour asks you to help them with their maths homework, and you do a good job explaining the problems to them",1,0,0,1,0,0
"35","subCA1_1",47,"negative","0.0-20.0-0.10-0.10","html-button-response-ca","Everyone has different senses of humour","Someone you are close to tells you you are not funny",0,"external_global",2006496,3876,3,196,FALSE,1,10,"psychoed",2189335,1634242.8,2034667.40000001,64,1,"yes","close relationship","personal qualities","Someone you are close to tells you you are not funny",0,1,0,0,1,0
"36","subCA1_1",53,"positive","0.0-20.0-0.11-0.11","html-button-response-ca","In the past, I have helped out this particular colleage with some advice","Someone you work with tells you they trust your judgement",0,"internal_specific",2016494,8494,2,197,FALSE,1,11,"psychoed",2189335,1634242.8,2034667.40000001,64,1,"yes","colleagues","personal qualities","Someone you work with tells you they trust your judgement",1,0,0,1,0,0
"37","subCA1_1",55,"negative","0.0-20.0-0.12-0.12","html-button-response-ca","It's often the case that people accidentally disclose others' secrets","Someone you care about deeply has disclosed something you told them in confidence to someone else",0,"external_global",2027478,9478,1,198,FALSE,1,12,"psychoed",2189335,1634242.8,2034667.40000001,64,1,"yes","close relationship","reaching out","Someone you care about deeply has disclosed something you told them in confidence to someone else",0,1,0,0,1,0
"38","subCA1_1",56,"positive","0.0-20.0-0.13-0.13","html-button-response-ca","I have recently been helping this particular person work through something","Someone you are close to tells you they consider you a role model",0,"internal_specific",2035842,6860,1,199,FALSE,1,13,"psychoed",2189335,1634242.8,2034667.40000001,64,1,"yes","close relationship","personal qualities","Someone you are close to tells you they consider you a role model",1,0,0,1,0,0
"39","subCA1_1",59,"negative","0.0-20.0-0.14-0.14","html-button-response-ca","It's not uncommon for people to let off steam by talking about their colleagues","You overhear someone at work talking about you behind your back",0,"external_global",2043308,5961,2,200,FALSE,1,14,"psychoed",2189335,1634242.8,2034667.40000001,64,1,"yes","colleagues","personal qualities","You overhear someone at work talking about you behind your back",0,1,0,0,1,0
"40","subCA1_1",61,"negative","0.0-20.0-0.15-0.15","html-button-response-ca","People are often bored during work presentations","You give a presentation at work and it seems like no one is paying attention",0,"external_global",2048600,3788,0,201,FALSE,1,15,"psychoed",2189335,1634242.8,2034667.40000001,64,1,"no","general performance (job)","semi-social","You give a presentation at work and it seems like no one is paying attention",0,1,0,0,1,0
"41","subCA1_1",67,"negative","0.0-20.0-0.16-0.16","html-button-response-ca","This particular friend is probably dealing with something right now that demands all their attention","You ask a friend for help with something important but they say they are too busy",0,"external_specific",2058646,6955,2,203,FALSE,1,16,"psychoed",2189335,1634242.8,2034667.40000001,64,1,"yes","friends","reaching out","You ask a friend for help with something important but they say they are too busy",0,0,0,0,0,1
"42","subCA1_1",73,"positive","0.0-20.0-0.17-0.17","html-button-response-ca","I'm good at my job","You receive an excellent performance evaluation from your boss",0,"internal_global",2064888,4736,3,204,FALSE,1,17,"psychoed",2189335,1634242.8,2034667.40000001,64,1,"no","formal assessment (job)","semi-social","You receive an excellent performance evaluation from your boss",1,1,1,0,0,0
"43","subCA1_1",75,"negative","0.0-20.0-0.18-0.18","html-button-response-ca","During my last conversation with this person, I may have come across as rude or uncaring","A friend tells you that you are being difficult",0,"internal_specific",2074250,7857,2,205,FALSE,1,18,"psychoed",2189335,1634242.8,2034667.40000001,64,1,"yes","friends","personal qualities","A friend tells you that you are being difficult",1,0,0,1,0,0
"44","subCA1_1",76,"negative","0.0-20.0-0.19-0.19","html-button-response-ca","I haven't been making as much effort at work as I could have recently","You find out that colleague has scored you poorly on a a performance evaluation",0,"internal_specific",2085352,9597,2,206,FALSE,1,19,"psychoed",2189335,1634242.8,2034667.40000001,64,1,"no","formal assessment (job)","semi-social","You find out that colleague has scored you poorly on a a performance evaluation",1,0,0,1,0,0
"45","subCA1_1",25,"negative","0.0-20.0-0.2-0.2","html-button-response-ca","At the time, I probably wasn't concentrating enough on what I was doing","You start doing the washing up but drop and smash a plate",0,"internal_specific",1937627,4639,3,188,FALSE,1,2,"psychoed",2189335,1634242.8,2034667.40000001,64,1,"no","general functioning (everyday life: easier task)","self-care","You start doing the washing up but drop and smash a plate",1,0,0,1,0,0
"46","subCA1_1",77,"positive","0.0-20.0-0.20-0.20","html-button-response-ca","I made a special effort to prepare for this particular test","You find out you passed a difficult test for a professional qualification you wanted",0,"internal_specific",2094486,7629,0,207,FALSE,1,20,"psychoed",2189335,1634242.8,2034667.40000001,64,1,"no","formal assessment (academic)","non-social","You find out you passed a difficult test for a professional qualification you wanted",1,0,0,1,0,0
"47","subCA1_1",78,"positive","0.0-20.0-0.21-0.21","html-button-response-ca","Recently, I have spent a lot of time with this particular person","A friend tells you you are a good friend to them",0,"internal_specific",2103007,7016,3,208,FALSE,1,21,"psychoed",2189335,1634242.8,2034667.40000001,64,1,"yes","friends","personal qualities","A friend tells you you are a good friend to them",1,0,0,1,0,0
"48","subCA1_1",83,"negative","0.0-20.0-0.22-0.22","html-button-response-ca","Recently, I haven't tried much to engage with my colleagues","You aren't nominated for an award recognizing contribution to workplace culture",0,"internal_specific",2112465,7954,0,209,FALSE,1,22,"psychoed",2189335,1634242.8,2034667.40000001,64,1,"yes","colleagues","personal qualities","You aren't nominated for an award recognizing contribution to workplace culture",1,0,0,1,0,0
"49","subCA1_1",84,"positive","0.0-20.0-0.23-0.23","html-button-response-ca","Recently, I have probably helped this colleage out with something private","Someone from work tells you they consider you trustworthy",0,"internal_specific",2120399,6429,1,210,FALSE,1,23,"psychoed",2189335,1634242.8,2034667.40000001,64,1,"yes","colleagues","personal qualities","Someone from work tells you they consider you trustworthy",1,0,0,1,0,0
"50","subCA1_1",97,"negative","0.0-20.0-0.24-0.24","html-button-response-ca","Recently, I haven't been managing my time very well","You find yourself struggling to meet your targets at work",0,"internal_specific",2128739,6837,3,211,FALSE,1,24,"psychoed",2189335,1634242.8,2034667.40000001,64,1,"no","general performance (job)","non-social","You find yourself struggling to meet your targets at work",1,0,0,1,0,0
"51","subCA1_1",100,"negative","0.0-20.0-0.25-0.25","html-button-response-ca","This person is probably not able to respond right now (e.g., they are unwell or away)","Someone you care deeply about is not responding to your calls and messages",0,"external_specific",2136600,6358,2,212,FALSE,1,25,"psychoed",2189335,1634242.8,2034667.40000001,64,1,"yes","close relationship","reaching out","Someone you care deeply about is not responding to your calls and messages",0,0,0,0,0,1
"52","subCA1_1",102,"positive","0.0-20.0-0.26-0.26","html-button-response-ca","On this particular occasion, I had something important to say","A letter you have written to the newspaper is selected to be published",0,"internal_specific",2146055,7951,2,213,FALSE,1,26,"psychoed",2189335,1634242.8,2034667.40000001,64,1,"no","formal assessment (academic)","non-social","A letter you have written to the newspaper is selected to be published",1,0,0,1,0,0
"53","subCA1_1",108,"negative","0.0-20.0-0.27-0.27","html-button-response-ca","My friend thought I wasn't free on this specific date","You find out a friend is having a party but hasn't invited you",0,"external_specific",2156905,9346,1,214,FALSE,1,27,"psychoed",2189335,1634242.8,2034667.40000001,64,1,"yes","friends","reaching out","You find out a friend is having a party but hasn't invited you",0,0,0,0,0,1
"54","subCA1_1",110,"positive","0.0-20.0-0.28-0.28","html-button-response-ca","People I'm close to think well of me","Someone you are close to tells you they wish they were more like you",0,"internal_global",2165859,7449,3,215,FALSE,1,28,"psychoed",2189335,1634242.8,2034667.40000001,64,1,"yes","close relationship","personal qualities","Someone you are close to tells you they wish they were more like you",1,1,1,0,0,0
"55","subCA1_1",115,"positive","0.0-20.0-0.29-0.29","html-button-response-ca","People generally compliment their friends from time to time","A friend tells you you are a good person",0,"external_global",2173987,6623,0,216,FALSE,1,29,"psychoed",2189335,1634242.8,2034667.40000001,64,1,"yes","friends","personal qualities","A friend tells you you are a good person",0,1,0,0,1,0
"56","subCA1_1",28,"positive","0.0-20.0-0.3-0.3","html-button-response-ca","On this occasion, I made some good points","You speak during a neighbourhood association meeting and receive applause",0,"internal_specific",1946341,7211,0,189,FALSE,1,3,"psychoed",2189335,1634242.8,2034667.40000001,64,1,"yes","contemporaries (not known well)","feedback/responsibility","You speak during a neighbourhood association meeting and receive applause",1,0,0,1,0,0
"57","subCA1_1",120,"positive","0.0-20.0-0.30-0.30","html-button-response-ca","People generally reach out to their friends from time to time","A friend calls you up out of the blue to see how you are",0,"external_global",2182411,6921,3,217,FALSE,1,30,"psychoed",2189335,1634242.8,2034667.40000001,64,1,"yes","friends","reaching out","A friend calls you up out of the blue to see how you are",0,1,0,0,1,0
"58","subCA1_1",125,"negative","0.0-20.0-0.31-0.31","html-button-response-ca","I probably didn't spend enough time studying for the test","You find out that you didn't pass a test you took that counts towards a professional exam",0,"internal_specific",2189334,5419,1,218,FALSE,1,31,"psychoed",2189335,1634242.8,2034667.40000001,64,1,"no","formal assessment (academic)","non-social","You find out that you didn't pass a test you took that counts towards a professional exam",1,0,0,1,0,0
"59","subCA1_1",29,"positive","0.0-20.0-0.4-0.4","html-button-response-ca","I seem to click well with this particular person","A colleague tells you they like your company",0,"internal_specific",1959487,11642,1,190,FALSE,1,4,"psychoed",2189335,1634242.8,2034667.40000001,64,1,"yes","colleagues","personal qualities","A colleague tells you they like your company",1,0,0,1,0,0
"60","subCA1_1",31,"positive","0.0-20.0-0.5-0.5","html-button-response-ca","Recently I did something my friend is impressed by","Someone you are close to tells you that they admire you",0,"internal_specific",1967133,6142,3,191,FALSE,1,5,"psychoed",2189335,1634242.8,2034667.40000001,64,1,"yes","close relationship","personal qualities","Someone you are close to tells you that they admire you",1,0,0,1,0,0
"61","subCA1_1",35,"positive","0.0-20.0-0.6-0.6","html-button-response-ca","This particular puzzle was probably quite easy","You complete today's crossword easily",0,"external_specific",1973951,5314,3,192,FALSE,1,6,"psychoed",2189335,1634242.8,2034667.40000001,64,1,"no","general performance (academic)","non-social","You complete today's crossword easily",0,0,0,0,0,1
"62","subCA1_1",37,"negative","0.0-20.0-0.7-0.7","html-button-response-ca","This problem was too complicated to work out without writing everything out","You struggle to work out what everyone needs to pay when booking a work activity",0,"external_specific",1983987,8530,0,193,FALSE,1,7,"psychoed",2189335,1634242.8,2034667.40000001,64,1,"no","formal assessment (academic)","semi-social","You struggle to work out what everyone needs to pay when booking a work activity",0,0,0,0,0,1
"63","subCA1_1",44,"negative","0.0-20.0-0.8-0.8","html-button-response-ca","I haven't shown any interest in work events recently","You discover that you haven't been invited to an after-work social event",0,"internal_specific",1991141,5651,3,194,FALSE,1,8,"psychoed",2189335,1634242.8,2034667.40000001,64,1,"yes","colleagues","reaching out","You discover that you haven't been invited to an after-work social event",1,0,0,1,0,0
"64","subCA1_1",45,"negative","0.0-20.0-0.9-0.9","html-button-response-ca","People's work is usually not that interesting to people they don't know","You present your work to the rest of your evening class but it doesn't receive much positive feedback",0,"external_global",2001115,8470,0,195,FALSE,1,9,"psychoed",2189335,1634242.8,2034667.40000001,64,1,"yes","contemporaries (not known well)","feedback/responsibility","You present your work to the rest of your evening class but it doesn't receive much positive feedback",0,1,0,0,1,0
"65","subCA1_2",0,"negative","0.0-2.0-0.0-0.0","html-button-response-ca","Deep down, my friends don't really like me","You find out that someone you consider a friend has talked about you negatively behind your back",0,"internal_global",180163,14830,2,3,FALSE,0,0,"control",2147000,1679966.20000005,1949197.20000005,64,2,"yes","friends","personal qualities","You find out that someone you consider a friend has talked about you negatively behind your back",1,1,1,0,0,0
"66","subCA1_2",1,"positive","0.0-2.0-0.1-0.1","html-button-response-ca","People at work generally reach out from time to time","Someone from work invites you out for a cup of coffee",0,"external_global",193002,11321,0,4,FALSE,0,1,"control",2147000,1679966.20000005,1949197.20000005,64,2,"yes","colleagues","reaching out","Someone from work invites you out for a cup of coffee",0,1,0,0,1,0
"67","subCA1_2",18,"negative","0.0-2.0-0.10-0.10","html-button-response-ca","I probably dedicated too much time to unimportant tasks this week","You didn't get the amount of work done you needed to",0,"internal_specific",315265,7629,0,13,FALSE,0,10,"control",2147000,1679966.20000005,1949197.20000005,64,2,"no","general performance (job)","non-social","You didn't get the amount of work done you needed to",1,0,0,1,0,0
"68","subCA1_2",22,"negative","0.0-2.0-0.11-0.11","html-button-response-ca","I haven't really made an effort to talk to my colleagues recently","You walk past a cafe close to work and see your some of your colleagues are meeting for lunch without you",0,"internal_specific",327537,10754,0,14,FALSE,0,11,"control",2147000,1679966.20000005,1949197.20000005,64,2,"yes","colleagues","reaching out","You walk past a cafe close to work and see your some of your colleagues are meeting for lunch without you",1,0,0,1,0,0
"69","subCA1_2",24,"positive","0.0-2.0-0.12-0.12","html-button-response-ca","I'm funny","A friend tells you you make them laugh",0,"internal_global",337525,8477,1,15,FALSE,0,12,"control",2147000,1679966.20000005,1949197.20000005,64,2,"yes","friends","personal qualities","A friend tells you you make them laugh",1,1,1,0,0,0
"70","subCA1_2",32,"positive","0.0-2.0-0.13-0.13","html-button-response-ca","I'm the kind of friend people value","A friend tells you speaking with you always makes them feel better",0,"internal_global",349790,10746,2,16,FALSE,0,13,"control",2147000,1679966.20000005,1949197.20000005,64,2,"yes","friends","personal qualities","A friend tells you speaking with you always makes them feel better",1,1,1,0,0,0
"71","subCA1_2",39,"positive","0.0-2.0-0.14-0.14","html-button-response-ca","My colleagues respect my skill at work","You find out that you have been put forward for a leadership position at work",0,"internal_global",362906,11604,1,17,FALSE,0,14,"control",2147000,1679966.20000005,1949197.20000005,64,2,"no","formal assessment (job)","non-social","You find out that you have been put forward for a leadership position at work",1,1,1,0,0,0
"72","subCA1_2",41,"negative","0.0-2.0-0.15-0.15","html-button-response-ca","This time, my application was probably delayed for some reason","You submited an application to join a local community forum but haven't heard anything back",0,"external_specific",376881,12452,3,18,FALSE,0,15,"control",2147000,1679966.20000005,1949197.20000005,64,2,"no","general functioning (everyday life: easier task)","getting along (semi-social)","You submited an application to join a local community forum but haven't heard anything back",0,0,0,0,0,1
"73","subCA1_2",43,"positive","0.0-2.0-0.16-0.16","html-button-response-ca","Recently, I have made an effort to be there for this particular friend","Someone you are close to has sent you a card thanking you for being there for them during a difficult time",0,"internal_specific",392232,8734,2,20,FALSE,0,16,"control",2147000,1679966.20000005,1949197.20000005,64,2,"yes","close relationship","reaching out","Someone you are close to has sent you a card thanking you for being there for them during a difficult time",1,0,0,1,0,0
"74","subCA1_2",54,"positive","0.0-2.0-0.17-0.17","html-button-response-ca","On this particular occasion, I did a good job","You find out someone has contacted your employer to praise work you did for them",0,"internal_specific",405822,12081,1,21,FALSE,0,17,"control",2147000,1679966.20000005,1949197.20000005,64,2,"no","general performance (job)","semi-social","You find out someone has contacted your employer to praise work you did for them",1,0,0,1,0,0
"75","subCA1_2",62,"positive","0.0-2.0-0.18-0.18","html-button-response-ca","The test material was probably quite easy","You successfully practice saying some phrases of a new language you are trying to learn",0,"external_specific",418808,11459,0,22,FALSE,0,18,"control",2147000,1679966.20000005,1949197.20000005,64,2,"no","general functioning (everyday life: harder task)","life activities","You practice saying some phrases of a new language you are trying to learn",0,0,0,0,0,1
"76","subCA1_2",68,"positive","0.0-2.0-0.19-0.19","html-button-response-ca","I'm a trustworthy person","Someone you are close to tells you they trust you",0,"internal_global",424311,3980,2,23,FALSE,0,19,"control",2147000,1679966.20000005,1949197.20000005,64,2,"yes","close relationship","personal qualities","Someone you are close to tells you they trust you",1,1,1,0,0,0
"77","subCA1_2",2,"negative","0.0-2.0-0.2-0.2","html-button-response-ca","I probably haven't been responsive enough to their recent messages","You message your friend to ask for advice but they don't reply",0,"internal_specific",208291,13778,3,5,FALSE,0,2,"control",2147000,1679966.20000005,1949197.20000005,64,2,"yes","friends","reaching out","You message your friend to ask for advice but they don't reply",1,0,0,1,0,0
"78","subCA1_2",72,"negative","0.0-2.0-0.20-0.20","html-button-response-ca","People are often not interested in what other people have to say at meetings","You speak during a community meeting but feel like people aren't interested in what you have to say",0,"external_global",448713,22876,3,24,FALSE,0,20,"control",2147000,1679966.20000005,1949197.20000005,64,2,"yes","contemporaries (not known well)","feedback/responsibility","You speak during a community meeting but feel like people aren't interested in what you have to say",0,1,0,0,1,0
"79","subCA1_2",74,"negative","0.0-2.0-0.21-0.21","html-button-response-ca","There are often more important things to think about than chores","You washed your clothes on the wrong setting and the colours have run",0,"external_global",464557,14324,2,25,FALSE,0,21,"control",2147000,1679966.20000005,1949197.20000005,64,2,"no","general functioning (everyday life: easier task)","self-care","You washed your clothes on the wrong setting and the colours have run",0,1,0,0,1,0
"80","subCA1_2",79,"negative","0.0-2.0-0.22-0.22","html-button-response-ca","My friend was probably busy that day thinking about something else","You see a very close friend and wave at them but they don't wave back",0,"external_specific",474426,8348,1,26,FALSE,0,22,"control",2147000,1679966.20000005,1949197.20000005,64,2,"yes","close relationship","reaching out","You see a very close friend and wave at them but they don't wave back",0,0,0,0,0,1
"81","subCA1_2",93,"positive","0.0-2.0-0.23-0.23","html-button-response-ca","I'm skilled at what I do","A colleague comments on the high quality of your recent work",0,"internal_global",481532,5598,1,27,FALSE,0,23,"control",2147000,1679966.20000005,1949197.20000005,64,2,"no","general performance (job)","semi-social","A colleague comments on the high quality of your recent work",1,1,1,0,0,0
"82","subCA1_2",99,"negative","0.0-2.0-0.24-0.24","html-button-response-ca","Recently, I haven't been involved much in community events","You want to be nominated for a role in your local community group but no one suggests you",0,"internal_specific",497390,14336,2,28,FALSE,0,24,"control",2147000,1679966.20000005,1949197.20000005,64,2,"yes","contemporaries (not known well)","feedback/responsibility","You want to be nominated for a role in your local community group but no one suggests you",1,0,0,1,0,0
"83","subCA1_2",101,"positive","0.0-2.0-0.25-0.25","html-button-response-ca","I'm the sort of person people like to have on their team","Someone from work tells you they would like to be on your team for a work social event",0,"internal_global",507859,8961,2,29,FALSE,0,25,"control",2147000,1679966.20000005,1949197.20000005,64,2,"yes","colleagues","reaching out","Someone from work tells you they would like to be on your team for a work social event",1,1,1,0,0,0
"84","subCA1_2",104,"positive","0.0-2.0-0.26-0.26","html-button-response-ca","People I'm close to have a lot of time for me","Someone you care about takes time out of their busy day to check in on you ",0,"internal_global",516750,7378,3,30,FALSE,0,26,"control",2147000,1679966.20000005,1949197.20000005,64,2,"yes","close relationship","reaching out","Someone you care about takes time out of their busy day to check in on you",1,1,1,0,0,0
"85","subCA1_2",105,"negative","0.0-2.0-0.27-0.27","html-button-response-ca","On this occasion, I let myself be distracted by something unimportant","You forget you put dinner in the oven and it burns",0,"internal_specific",525822,7549,3,31,FALSE,0,27,"control",2147000,1679966.20000005,1949197.20000005,64,2,"no","general functioning (everyday life: easier task)","self-care","You forget you put dinner in the oven and it burns",1,0,0,1,0,0
"86","subCA1_2",112,"negative","0.0-2.0-0.28-0.28","html-button-response-ca","This particular person seems to be rude about everyone","You overhear a colleague telling someone else they don't like you",0,"external_specific",536126,8782,2,32,FALSE,0,28,"control",2147000,1679966.20000005,1949197.20000005,64,2,"yes","colleagues","personal qualities","You overhear a colleague telling someone else they don't like you",0,0,0,0,0,1
"87","subCA1_2",113,"positive","0.0-2.0-0.29-0.29","html-button-response-ca","Recently, I've taken the time to help out this colleage with their work","A colleague tells you they particularly appreciate your feedback on their work, as it is valuable",0,"internal_specific",568680,31026,2,33,FALSE,0,29,"control",2147000,1679966.20000005,1949197.20000005,64,2,"yes","colleagues","personal qualities","A colleague tells you they particularly appreciate your feedback on their work, as it is valuable",1,0,0,1,0,0
"88","subCA1_2",3,"negative","0.0-2.0-0.3-0.3","html-button-response-ca","Usually people forget some things when they run errands","You return from the shops without something important from your shopping list",0,"external_global",219964,10167,3,6,FALSE,0,3,"control",2147000,1679966.20000005,1949197.20000005,64,2,"no","general functioning (everyday life: harder task)","life activities","You return from the shops without something important from your shopping list",0,1,0,0,1,0
"89","subCA1_2",116,"positive","0.0-2.0-0.30-0.30","html-button-response-ca","I'm good at my job","You find out a colleague has nominated you for a performance award at work",0,"internal_global",576643,6447,3,34,FALSE,0,30,"control",2147000,1679966.20000005,1949197.20000005,64,2,"no","formal assessment (job)","semi-social","You find out a colleague has nominated you for a performance award at work",1,1,1,0,0,0
"90","subCA1_2",127,"positive","0.0-2.0-0.31-0.31","html-button-response-ca","I worked hard on this presentation so it turned out well","You present your work during your evening class and get lots of praise from your classmates",0,"internal_specific",587261,9104,1,35,FALSE,0,31,"control",2147000,1679966.20000005,1949197.20000005,64,2,"yes","contemporaries (not known well)","feedback/responsibility","You present your work during your evening class and get lots of praise from your classmates",1,0,0,1,0,0
"91","subCA1_2",5,"negative","0.0-2.0-0.4-0.4","html-button-response-ca","I can't get on with other people","You'd like to be more engaged in your local community",0,"internal_global",237651,16158,1,7,FALSE,0,4,"control",2147000,1679966.20000005,1949197.20000005,64,2,"no","general functioning (everyday life: harder task)","getting along (semi-social)","You'd like to be more engaged in your local community",1,1,1,0,0,0
"92","subCA1_2",7,"negative","0.0-2.0-0.5-0.5","html-button-response-ca","People never value my ideas","Your suggestion for a community social event receives the lowest number of votes",0,"internal_global",250925,11770,1,8,FALSE,0,5,"control",2147000,1679966.20000005,1949197.20000005,64,2,"yes","contemporaries (not known well)","feedback/responsibility","Your suggestion for a community social event receives the lowest number of votes",1,1,1,0,0,0
"93","subCA1_2",8,"positive","0.0-2.0-0.6-0.6","html-button-response-ca","Recently, I did well on a particular piece of work","You receive anonymised feedback on your work performance by colleagues, and it's very complimentary",0,"internal_specific",267999,15554,2,9,FALSE,0,6,"control",2147000,1679966.20000005,1949197.20000005,64,2,"no","formal assessment (job)","non-social","You receive anonymised feedback on your work performance by colleagues, and it's very complimentary",1,0,0,1,0,0
"94","subCA1_2",13,"negative","0.0-2.0-0.7-0.7","html-button-response-ca","I haven't reached out to this person recently","Someone you feel very close to is having a birthday dinner but hasn't invited you",0,"internal_specific",282159,12639,1,10,FALSE,0,7,"control",2147000,1679966.20000005,1949197.20000005,64,2,"yes","close relationship","reaching out","Someone you feel very close to is having a birthday dinner but hasn't invited you",1,0,0,1,0,0
"95","subCA1_2",15,"positive","0.0-2.0-0.8-0.8","html-button-response-ca","I'm good at my job","You find out that your manager wants to put you forward for promotion at work",0,"internal_global",292846,9180,1,11,FALSE,0,8,"control",2147000,1679966.20000005,1949197.20000005,64,2,"no","general performance (job)","non-social","You find out that your manager wants to put you forward for promotion at work",1,1,1,0,0,0
"96","subCA1_2",17,"negative","0.0-2.0-0.9-0.9","html-button-response-ca","They were probably preoccupied and didn't see me","You smile at someone across the street you recognise, but they don't smile back",0,"external_specific",306125,11768,0,12,FALSE,0,9,"control",2147000,1679966.20000005,1949197.20000005,64,2,"yes","contemporaries (not known well)","reaching out","You smile at someone across the street you recognise, but they don't smile back",0,0,0,0,0,1
"97","subCA1_2",11,"positive","0.0-20.0-0.0-0.0","html-button-response-ca","I'm smart","You take part in a quiz at work and get lots of answers right, so your team wins",0,"internal_global",1941774,6207,1,186,FALSE,1,0,"control",2147000,1679966.20000005,1949197.20000005,64,2,"no","formal assessment (academic)","semi-social","You take part in a quiz at work and get lots of answers right, so your team wins",1,1,1,0,0,0
"98","subCA1_2",21,"positive","0.0-20.0-0.1-0.1","html-button-response-ca","I can usually get my head around straightforward problems","Your neighbour asks you to help them with their maths homework, and you do a good job explaining the problems to them",0,"internal_specific",1951350,8061,3,187,FALSE,1,1,"control",2147000,1679966.20000005,1949197.20000005,64,2,"no","general performance (academic)","semi-social","Your neighbour asks you to help them with their maths homework, and you do a good job explaining the problems to them",1,0,0,1,0,0
"99","subCA1_2",47,"negative","0.0-20.0-0.10-0.10","html-button-response-ca","This particular person probably doesn't have a similar sense of humour to me","Someone you are close to tells you you are not funny",0,"external_specific",2003572,3308,1,196,FALSE,1,10,"control",2147000,1679966.20000005,1949197.20000005,64,2,"yes","close relationship","personal qualities","Someone you are close to tells you you are not funny",0,0,0,0,0,1
"100","subCA1_2",53,"positive","0.0-20.0-0.11-0.11","html-button-response-ca","People I work with generally respect my judgement","Someone you work with tells you they trust your judgement",0,"internal_global",2008204,3113,1,197,FALSE,1,11,"control",2147000,1679966.20000005,1949197.20000005,64,2,"yes","colleagues","personal qualities","Someone you work with tells you they trust your judgement",1,1,1,0,0,0
"101","subCA1_2",55,"negative","0.0-20.0-0.12-0.12","html-button-response-ca","I have probably done something recently to offend this person","Someone you care about deeply has disclosed something you told them in confidence to someone else",0,"internal_specific",2016306,6585,1,198,FALSE,1,12,"control",2147000,1679966.20000005,1949197.20000005,64,2,"yes","close relationship","reaching out","Someone you care about deeply has disclosed something you told them in confidence to someone else",1,0,0,1,0,0
"102","subCA1_2",56,"positive","0.0-20.0-0.13-0.13","html-button-response-ca","I'm the kind of person people look up to","Someone you are close to tells you they consider you a role model",0,"internal_global",2022141,4323,2,199,FALSE,1,13,"control",2147000,1679966.20000005,1949197.20000005,64,2,"yes","close relationship","personal qualities","Someone you are close to tells you they consider you a role model",1,1,1,0,0,0
"103","subCA1_2",59,"negative","0.0-20.0-0.14-0.14","html-button-response-ca","It's not uncommon for people to let off steam by talking about their colleagues","You overhear someone at work talking about you behind your back",0,"external_global",2031765,8119,3,200,FALSE,1,14,"control",2147000,1679966.20000005,1949197.20000005,64,2,"yes","colleagues","personal qualities","You overhear someone at work talking about you behind your back",0,1,0,0,1,0
"104","subCA1_2",61,"negative","0.0-20.0-0.15-0.15","html-button-response-ca","People are often bored during work presentations","You give a presentation at work and it seems like no one is paying attention",0,"external_global",2041302,8016,0,201,FALSE,1,15,"control",2147000,1679966.20000005,1949197.20000005,64,2,"no","general performance (job)","semi-social","You give a presentation at work and it seems like no one is paying attention",0,1,0,0,1,0
"105","subCA1_2",67,"negative","0.0-20.0-0.16-0.16","html-button-response-ca","I haven't been very supportive of this particular person recently","You ask a friend for help with something important but they say they are too busy",0,"internal_specific",2049868,5328,0,203,FALSE,1,16,"control",2147000,1679966.20000005,1949197.20000005,64,2,"yes","friends","reaching out","You ask a friend for help with something important but they say they are too busy",1,0,0,1,0,0
"106","subCA1_2",73,"positive","0.0-20.0-0.17-0.17","html-button-response-ca","I'm good at my job","You receive an excellent performance evaluation from your boss",0,"internal_global",2055999,4616,2,204,FALSE,1,17,"control",2147000,1679966.20000005,1949197.20000005,64,2,"no","formal assessment (job)","semi-social","You receive an excellent performance evaluation from your boss",1,1,1,0,0,0
"107","subCA1_2",75,"negative","0.0-20.0-0.18-0.18","html-button-response-ca","My friend is probably having a difficult time right now and is looking for more support from me","A friend tells you that you are being difficult",0,"external_specific",2061909,4389,2,205,FALSE,1,18,"control",2147000,1679966.20000005,1949197.20000005,64,2,"yes","friends","personal qualities","A friend tells you that you are being difficult",0,0,0,0,0,1
"108","subCA1_2",76,"negative","0.0-20.0-0.19-0.19","html-button-response-ca","I haven't been making as much effort at work as I could have recently","You find out that colleague has scored you poorly on a a performance evaluation",0,"internal_specific",2069349,5920,2,206,FALSE,1,19,"control",2147000,1679966.20000005,1949197.20000005,64,2,"no","formal assessment (job)","semi-social","You find out that colleague has scored you poorly on a a performance evaluation",1,0,0,1,0,0
"109","subCA1_2",25,"negative","0.0-20.0-0.2-0.2","html-button-response-ca","At the time, I probably wasn't concentrating enough on what I was doing","You start doing the washing up but drop and smash a plate",0,"internal_specific",1960263,7387,0,188,FALSE,1,2,"control",2147000,1679966.20000005,1949197.20000005,64,2,"no","general functioning (everyday life: easier task)","self-care","You start doing the washing up but drop and smash a plate",1,0,0,1,0,0
"110","subCA1_2",77,"positive","0.0-20.0-0.20-0.20","html-button-response-ca","I'm smart and work hard","You find out you passed a difficult test for a professional qualification you wanted",0,"internal_global",2075066,4189,3,207,FALSE,1,20,"control",2147000,1679966.20000005,1949197.20000005,64,2,"no","formal assessment (academic)","non-social","You find out you passed a difficult test for a professional qualification you wanted",1,1,1,0,0,0
"111","subCA1_2",78,"positive","0.0-20.0-0.21-0.21","html-button-response-ca","I'm a good friend","A friend tells you you are a good friend to them",0,"internal_global",2079107,2520,0,208,FALSE,1,21,"control",2147000,1679966.20000005,1949197.20000005,64,2,"yes","friends","personal qualities","A friend tells you you are a good friend to them",1,1,1,0,0,0
"112","subCA1_2",83,"negative","0.0-20.0-0.22-0.22","html-button-response-ca","Recently, I haven't tried much to engage with my colleagues","You aren't nominated for an award recognizing contribution to workplace culture",0,"internal_specific",2089669,9040,0,209,FALSE,1,22,"control",2147000,1679966.20000005,1949197.20000005,64,2,"yes","colleagues","personal qualities","You aren't nominated for an award recognizing contribution to workplace culture",1,0,0,1,0,0
"113","subCA1_2",84,"positive","0.0-20.0-0.23-0.23","html-button-response-ca","Even people I don't know that well generally think well of me","Someone from work tells you they consider you trustworthy",0,"internal_global",2096002,4804,1,210,FALSE,1,23,"control",2147000,1679966.20000005,1949197.20000005,64,2,"yes","colleagues","personal qualities","Someone from work tells you they consider you trustworthy",1,1,1,0,0,0
"114","subCA1_2",97,"negative","0.0-20.0-0.24-0.24","html-button-response-ca","I'm disorganised and unfocused","You find yourself struggling to meet your targets at work",0,"internal_global",2101307,3773,0,211,FALSE,1,24,"control",2147000,1679966.20000005,1949197.20000005,64,2,"no","general performance (job)","non-social","You find yourself struggling to meet your targets at work",1,1,1,0,0,0
"115","subCA1_2",100,"negative","0.0-20.0-0.25-0.25","html-button-response-ca","People are often too preocuppied with their own problems to reply to even important messages","Someone you care deeply about is not responding to your calls and messages",0,"external_global",2110225,7392,2,212,FALSE,1,25,"control",2147000,1679966.20000005,1949197.20000005,64,2,"yes","close relationship","reaching out","Someone you care deeply about is not responding to your calls and messages",0,1,0,0,1,0
"116","subCA1_2",102,"positive","0.0-20.0-0.26-0.26","html-button-response-ca","People are interested in what I have to say","A letter you have written to the newspaper is selected to be published",0,"internal_global",2116071,4325,2,213,FALSE,1,26,"control",2147000,1679966.20000005,1949197.20000005,64,2,"no","formal assessment (academic)","non-social","A letter you have written to the newspaper is selected to be published",1,1,1,0,0,0
"117","subCA1_2",108,"negative","0.0-20.0-0.27-0.27","html-button-response-ca","I haven't made it easy for people to talk to me recently","You find out a friend is having a party but hasn't invited you",0,"internal_specific",2124558,6977,2,214,FALSE,1,27,"control",2147000,1679966.20000005,1949197.20000005,64,2,"yes","friends","reaching out","You find out a friend is having a party but hasn't invited you",1,0,0,1,0,0
"118","subCA1_2",110,"positive","0.0-20.0-0.28-0.28","html-button-response-ca","Recently, I've made a particular effort to help out this person","Someone you are close to tells you they wish they were more like you",0,"internal_specific",2132306,6227,2,215,FALSE,1,28,"control",2147000,1679966.20000005,1949197.20000005,64,2,"yes","close relationship","personal qualities","Someone you are close to tells you they wish they were more like you",1,0,0,1,0,0
"119","subCA1_2",115,"positive","0.0-20.0-0.29-0.29","html-button-response-ca","My friends think highly of me","A friend tells you you are a good person",0,"internal_global",2136062,2233,0,216,FALSE,1,29,"control",2147000,1679966.20000005,1949197.20000005,64,2,"yes","friends","personal qualities","A friend tells you you are a good person",1,1,1,0,0,0
"120","subCA1_2",28,"positive","0.0-20.0-0.3-0.3","html-button-response-ca","I'm a good communicator","You speak during a neighbourhood association meeting and receive applause",0,"internal_global",1965908,4142,2,189,FALSE,1,3,"control",2147000,1679966.20000005,1949197.20000005,64,2,"yes","contemporaries (not known well)","feedback/responsibility","You speak during a neighbourhood association meeting and receive applause",1,1,1,0,0,0
"121","subCA1_2",120,"positive","0.0-20.0-0.30-0.30","html-button-response-ca","My friends care about me","A friend calls you up out of the blue to see how you are",0,"internal_global",2140806,3223,2,217,FALSE,1,30,"control",2147000,1679966.20000005,1949197.20000005,64,2,"yes","friends","reaching out","A friend calls you up out of the blue to see how you are",1,1,1,0,0,0
"122","subCA1_2",125,"negative","0.0-20.0-0.31-0.31","html-button-response-ca","Often tests are unecessarily hard","You find out that you didn't pass a test you took that counts towards a professional exam",0,"external_global",2146998,4670,1,218,FALSE,1,31,"control",2147000,1679966.20000005,1949197.20000005,64,2,"no","formal assessment (academic)","non-social","You find out that you didn't pass a test you took that counts towards a professional exam",0,1,0,0,1,0
"123","subCA1_2",29,"positive","0.0-20.0-0.4-0.4","html-button-response-ca","I'm a fun person to be around","A colleague tells you they like your company",0,"internal_global",1971232,3810,2,190,FALSE,1,4,"control",2147000,1679966.20000005,1949197.20000005,64,2,"yes","colleagues","personal qualities","A colleague tells you they like your company",1,1,1,0,0,0
"124","subCA1_2",31,"positive","0.0-20.0-0.5-0.5","html-button-response-ca","It's not uncommon for people to say nice things to people close to them","Someone you are close to tells you that they admire you",0,"external_global",1977371,4623,1,191,FALSE,1,5,"control",2147000,1679966.20000005,1949197.20000005,64,2,"yes","close relationship","personal qualities","Someone you are close to tells you that they admire you",0,1,0,0,1,0
"125","subCA1_2",35,"positive","0.0-20.0-0.6-0.6","html-button-response-ca","I'm generally OK at this kind of puzzle","You complete today's crossword easily",0,"internal_specific",1981876,2983,1,192,FALSE,1,6,"control",2147000,1679966.20000005,1949197.20000005,64,2,"no","general performance (academic)","non-social","You complete today's crossword easily",1,0,0,1,0,0
"126","subCA1_2",37,"negative","0.0-20.0-0.7-0.7","html-button-response-ca","This time, I didn't feel like persevering with solving the problem","You struggle to work out what everyone needs to pay when booking a work activity",0,"internal_specific",1987492,4089,2,193,FALSE,1,7,"control",2147000,1679966.20000005,1949197.20000005,64,2,"no","formal assessment (academic)","semi-social","You struggle to work out what everyone needs to pay when booking a work activity",1,0,0,1,0,0
"127","subCA1_2",44,"negative","0.0-20.0-0.8-0.8","html-button-response-ca","I haven't shown any interest in work events recently","You discover that you haven't been invited to an after-work social event",0,"internal_specific",1993530,4518,3,194,FALSE,1,8,"control",2147000,1679966.20000005,1949197.20000005,64,2,"yes","colleagues","reaching out","You discover that you haven't been invited to an after-work social event",1,0,0,1,0,0
"128","subCA1_2",45,"negative","0.0-20.0-0.9-0.9","html-button-response-ca","On this occasion, I didn't explain myself very well","You present your work to the rest of your evening class but it doesn't receive much positive feedback",0,"internal_specific",1998736,3684,0,195,FALSE,1,9,"control",2147000,1679966.20000005,1949197.20000005,64,2,"yes","contemporaries (not known well)","feedback/responsibility","You present your work to the rest of your evening class but it doesn't receive much positive feedback",1,0,0,1,0,0
"129","subCA1_3",0,"negative","0.0-2.0-0.0-0.0","html-button-response-ca","My friend was probably just in a bad mood and letting off steam","You find out that someone you consider a friend has talked about you negatively behind your back",0,"external_specific",134035,12923,0,3,FALSE,0,0,"psychoed",2403155,1747924.39999998,2090959.79999995,64,3,"yes","friends","personal qualities","You find out that someone you consider a friend has talked about you negatively behind your back",0,0,0,0,0,1
"130","subCA1_3",1,"positive","0.0-2.0-0.1-0.1","html-button-response-ca","I've made a particular effort to talk to this person recently","Someone from work invites you out for a cup of coffee",0,"internal_specific",146923,11377,2,4,FALSE,0,1,"psychoed",2403155,1747924.39999998,2090959.79999995,64,3,"yes","colleagues","reaching out","Someone from work invites you out for a cup of coffee",1,0,0,1,0,0
"131","subCA1_3",18,"negative","0.0-2.0-0.10-0.10","html-button-response-ca","I probably dedicated too much time to unimportant tasks this week","You didn't get the amount of work done you needed to",0,"internal_specific",270519,8752,2,13,FALSE,0,10,"psychoed",2403155,1747924.39999998,2090959.79999995,64,3,"no","general performance (job)","non-social","You didn't get the amount of work done you needed to",1,0,0,1,0,0
"132","subCA1_3",22,"negative","0.0-2.0-0.11-0.11","html-button-response-ca","People don't always remember to include everyone they mean to invite to something","You walk past a cafe close to work and see your some of your colleagues are meeting for lunch without you",0,"external_global",289688,17649,1,14,FALSE,0,11,"psychoed",2403155,1747924.39999998,2090959.79999995,64,3,"yes","colleagues","reaching out","You walk past a cafe close to work and see your some of your colleagues are meeting for lunch without you",0,1,0,0,1,0
"133","subCA1_3",24,"positive","0.0-2.0-0.12-0.12","html-button-response-ca","This particular friend happens to have a similar sense of humour to me","A friend tells you you make them laugh",0,"external_specific",304437,13238,3,15,FALSE,0,12,"psychoed",2403155,1747924.39999998,2090959.79999995,64,3,"yes","friends","personal qualities","A friend tells you you make them laugh",0,0,0,0,0,1
"134","subCA1_3",32,"positive","0.0-2.0-0.13-0.13","html-button-response-ca","I'm the kind of friend people value","A friend tells you speaking with you always makes them feel better",0,"internal_global",319130,13170,0,16,FALSE,0,13,"psychoed",2403155,1747924.39999998,2090959.79999995,64,3,"yes","friends","personal qualities","A friend tells you speaking with you always makes them feel better",1,1,1,0,0,0
"135","subCA1_3",39,"positive","0.0-2.0-0.14-0.14","html-button-response-ca","Recently, I've been performing well in my job","You find out that you have been put forward for a leadership position at work",0,"internal_specific",328294,7661,1,17,FALSE,0,14,"psychoed",2403155,1747924.39999998,2090959.79999995,64,3,"no","formal assessment (job)","non-social","You find out that you have been put forward for a leadership position at work",1,0,0,1,0,0
"136","subCA1_3",41,"negative","0.0-2.0-0.15-0.15","html-button-response-ca","This time, my application was probably delayed for some reason","You submited an application to join a local community forum but haven't heard anything back",0,"external_specific",342130,12323,1,18,FALSE,0,15,"psychoed",2403155,1747924.39999998,2090959.79999995,64,3,"no","general functioning (everyday life: easier task)","getting along (semi-social)","You submited an application to join a local community forum but haven't heard anything back",0,0,0,0,0,1
"137","subCA1_3",43,"positive","0.0-2.0-0.16-0.16","html-button-response-ca","It's not uncommon for people to do nice things for their friends","Someone you are close to has sent you a card thanking you for being there for them during a difficult time",0,"external_global",357112,11322,0,20,FALSE,0,16,"psychoed",2403155,1747924.39999998,2090959.79999995,64,3,"yes","close relationship","reaching out","Someone you are close to has sent you a card thanking you for being there for them during a difficult time",0,1,0,0,1,0
"138","subCA1_3",54,"positive","0.0-2.0-0.17-0.17","html-button-response-ca","On this particular occasion, I did a good job","You find out someone has contacted your employer to praise work you did for them",0,"internal_specific",368709,10084,2,21,FALSE,0,17,"psychoed",2403155,1747924.39999998,2090959.79999995,64,3,"no","general performance (job)","semi-social","You find out someone has contacted your employer to praise work you did for them",1,0,0,1,0,0
"139","subCA1_3",62,"positive","0.0-2.0-0.18-0.18","html-button-response-ca","I've been making a particular effort recently to spend time learning new things","You successfully practice saying some phrases of a new language you are trying to learn",0,"internal_specific",380869,10637,2,22,FALSE,0,18,"psychoed",2403155,1747924.39999998,2090959.79999995,64,3,"no","general functioning (everyday life: harder task)","life activities","You practice saying some phrases of a new language you are trying to learn",1,0,0,1,0,0
"140","subCA1_3",68,"positive","0.0-2.0-0.19-0.19","html-button-response-ca","I have been helping this person out with something private recently","Someone you are close to tells you they trust you",0,"internal_specific",396882,14483,0,23,FALSE,0,19,"psychoed",2403155,1747924.39999998,2090959.79999995,64,3,"yes","close relationship","personal qualities","Someone you are close to tells you they trust you",1,0,0,1,0,0
"141","subCA1_3",2,"negative","0.0-2.0-0.2-0.2","html-button-response-ca","My friend is probably just too busy to respond right now","You message your friend to ask for advice but they don't reply",0,"external_specific",155927,7483,0,5,FALSE,0,2,"psychoed",2403155,1747924.39999998,2090959.79999995,64,3,"yes","friends","reaching out","You message your friend to ask for advice but they don't reply",0,0,0,0,0,1
"142","subCA1_3",72,"negative","0.0-2.0-0.20-0.20","html-button-response-ca","It was probably something to do with the timing of that speech (e.g., it was nearing the end of the evening)","You speak during a community meeting but feel like people aren't interested in what you have to say",0,"external_specific",408233,9848,2,24,FALSE,0,20,"psychoed",2403155,1747924.39999998,2090959.79999995,64,3,"yes","contemporaries (not known well)","feedback/responsibility","You speak during a community meeting but feel like people aren't interested in what you have to say",0,0,0,0,0,1
"143","subCA1_3",74,"negative","0.0-2.0-0.21-0.21","html-button-response-ca","On this occasion, I wasn't paying enough attention","You washed your clothes on the wrong setting and the colours have run",0,"internal_specific",421505,11766,0,25,FALSE,0,21,"psychoed",2403155,1747924.39999998,2090959.79999995,64,3,"no","general functioning (everyday life: easier task)","self-care","You washed your clothes on the wrong setting and the colours have run",1,0,0,1,0,0
"144","subCA1_3",79,"negative","0.0-2.0-0.22-0.22","html-button-response-ca","My friend was probably busy that day thinking about something else","You see a very close friend and wave at them but they don't wave back",0,"external_specific",434683,11665,0,26,FALSE,0,22,"psychoed",2403155,1747924.39999998,2090959.79999995,64,3,"yes","close relationship","reaching out","You see a very close friend and wave at them but they don't wave back",0,0,0,0,0,1
"145","subCA1_3",93,"positive","0.0-2.0-0.23-0.23","html-button-response-ca","I'm skilled at what I do","A colleague comments on the high quality of your recent work",0,"internal_global",445040,8847,0,27,FALSE,0,23,"psychoed",2403155,1747924.39999998,2090959.79999995,64,3,"no","general performance (job)","semi-social","A colleague comments on the high quality of your recent work",1,1,1,0,0,0
"146","subCA1_3",99,"negative","0.0-2.0-0.24-0.24","html-button-response-ca","Someone else probably campaigned to be nominated, so was put forward this time","You want to be nominated for a role in your local community group but no one suggests you",0,"external_specific",455396,8839,3,28,FALSE,0,24,"psychoed",2403155,1747924.39999998,2090959.79999995,64,3,"yes","contemporaries (not known well)","feedback/responsibility","You want to be nominated for a role in your local community group but no one suggests you",0,0,0,0,0,1
"147","subCA1_3",101,"positive","0.0-2.0-0.25-0.25","html-button-response-ca","Recently, I have been friendly to this particular colleague","Someone from work tells you they would like to be on your team for a work social event",0,"internal_specific",468621,11726,3,29,FALSE,0,25,"psychoed",2403155,1747924.39999998,2090959.79999995,64,3,"yes","colleagues","reaching out","Someone from work tells you they would like to be on your team for a work social event",1,0,0,1,0,0
"148","subCA1_3",104,"positive","0.0-2.0-0.26-0.26","html-button-response-ca","It's not uncommon for people to do nice things for their friends","Someone you care about takes time out of their busy day to check in on you ",0,"external_global",483922,13793,2,30,FALSE,0,26,"psychoed",2403155,1747924.39999998,2090959.79999995,64,3,"yes","close relationship","reaching out","Someone you care about takes time out of their busy day to check in on you",0,1,0,0,1,0
"149","subCA1_3",105,"negative","0.0-2.0-0.27-0.27","html-button-response-ca","On this occasion, I let myself be distracted by something unimportant","You forget you put dinner in the oven and it burns",0,"internal_specific",491570,6123,1,31,FALSE,0,27,"psychoed",2403155,1747924.39999998,2090959.79999995,64,3,"no","general functioning (everyday life: easier task)","self-care","You forget you put dinner in the oven and it burns",1,0,0,1,0,0
"150","subCA1_3",112,"negative","0.0-2.0-0.28-0.28","html-button-response-ca","This particular person seems to be rude about everyone","You overhear a colleague telling someone else they don't like you",0,"external_specific",530981,37873,2,32,FALSE,0,28,"psychoed",2403155,1747924.39999998,2090959.79999995,64,3,"yes","colleagues","personal qualities","You overhear a colleague telling someone else they don't like you",0,0,0,0,0,1
"151","subCA1_3",113,"positive","0.0-2.0-0.29-0.29","html-button-response-ca","This particular person probably wants me to help them with something","A colleague tells you they particularly appreciate your feedback on their work, as it is valuable",0,"external_specific",546395,13899,2,33,FALSE,0,29,"psychoed",2403155,1747924.39999998,2090959.79999995,64,3,"yes","colleagues","personal qualities","A colleague tells you they particularly appreciate your feedback on their work, as it is valuable",0,0,0,0,0,1
"152","subCA1_3",3,"negative","0.0-2.0-0.3-0.3","html-button-response-ca","Usually people forget some things when they run errands","You return from the shops without something important from your shopping list",0,"external_global",173323,15879,3,6,FALSE,0,3,"psychoed",2403155,1747924.39999998,2090959.79999995,64,3,"no","general functioning (everyday life: harder task)","life activities","You return from the shops without something important from your shopping list",0,1,0,0,1,0
"153","subCA1_3",116,"positive","0.0-2.0-0.30-0.30","html-button-response-ca","I worked hard on a recent piece of work","You find out a colleague has nominated you for a performance award at work",0,"internal_specific",557443,9531,1,34,FALSE,0,30,"psychoed",2403155,1747924.39999998,2090959.79999995,64,3,"no","formal assessment (job)","semi-social","You find out a colleague has nominated you for a performance award at work",1,0,0,1,0,0
"154","subCA1_3",127,"positive","0.0-2.0-0.31-0.31","html-button-response-ca","This particular class are kind","You present your work during your evening class and get lots of praise from your classmates",0,"external_specific",567768,8816,2,35,FALSE,0,31,"psychoed",2403155,1747924.39999998,2090959.79999995,64,3,"yes","contemporaries (not known well)","feedback/responsibility","You present your work during your evening class and get lots of praise from your classmates",0,0,0,0,0,1
"155","subCA1_3",5,"negative","0.0-2.0-0.4-0.4","html-button-response-ca","Recently, there were a lot of other things going on","You'd like to be more engaged in your local community",0,"external_specific",185440,10605,2,7,FALSE,0,4,"psychoed",2403155,1747924.39999998,2090959.79999995,64,3,"no","general functioning (everyday life: harder task)","getting along (semi-social)","You'd like to be more engaged in your local community",0,0,0,0,0,1
"156","subCA1_3",7,"negative","0.0-2.0-0.5-0.5","html-button-response-ca","I probably didn't come up with a good enough idea this time","Your suggestion for a community social event receives the lowest number of votes",0,"internal_specific",203664,16712,2,8,FALSE,0,5,"psychoed",2403155,1747924.39999998,2090959.79999995,64,3,"yes","contemporaries (not known well)","feedback/responsibility","Your suggestion for a community social event receives the lowest number of votes",1,0,0,1,0,0
"157","subCA1_3",8,"positive","0.0-2.0-0.6-0.6","html-button-response-ca","People are generally positive in work feedback","You receive anonymised feedback on your work performance by colleagues, and it's very complimentary",0,"external_global",217777,12595,2,9,FALSE,0,6,"psychoed",2403155,1747924.39999998,2090959.79999995,64,3,"no","formal assessment (job)","non-social","You receive anonymised feedback on your work performance by colleagues, and it's very complimentary",0,1,0,0,1,0
"158","subCA1_3",13,"negative","0.0-2.0-0.7-0.7","html-button-response-ca","For this particular occasion, they were only able to invite a small number of people","Someone you feel very close to is having a birthday dinner but hasn't invited you",0,"external_specific",236118,16832,2,10,FALSE,0,7,"psychoed",2403155,1747924.39999998,2090959.79999995,64,3,"yes","close relationship","reaching out","Someone you feel very close to is having a birthday dinner but hasn't invited you",0,0,0,0,0,1
"159","subCA1_3",15,"positive","0.0-2.0-0.8-0.8","html-button-response-ca","Recently, I've been performing well at work","You find out that your manager wants to put you forward for promotion at work",0,"internal_specific",244895,7259,2,11,FALSE,0,8,"psychoed",2403155,1747924.39999998,2090959.79999995,64,3,"no","general performance (job)","non-social","You find out that your manager wants to put you forward for promotion at work",1,0,0,1,0,0
"160","subCA1_3",17,"negative","0.0-2.0-0.9-0.9","html-button-response-ca","They were probably preoccupied and didn't see me","You smile at someone across the street you recognise, but they don't smile back",0,"external_specific",260255,13850,1,12,FALSE,0,9,"psychoed",2403155,1747924.39999998,2090959.79999995,64,3,"yes","contemporaries (not known well)","reaching out","You smile at someone across the street you recognise, but they don't smile back",0,0,0,0,0,1
"161","subCA1_3",11,"positive","0.0-20.0-0.0-0.0","html-button-response-ca","On this occasion, I knew a lot about the topics that came up","You take part in a quiz at work and get lots of answers right, so your team wins",0,"internal_specific",2084194,11597,2,192,FALSE,1,0,"psychoed",2403155,1747924.39999998,2090959.79999995,64,3,"no","formal assessment (academic)","semi-social","You take part in a quiz at work and get lots of answers right, so your team wins",1,0,0,1,0,0
"162","subCA1_3",21,"positive","0.0-20.0-0.1-0.1","html-button-response-ca","I'm intelligent","Your neighbour asks you to help them with their maths homework, and you do a good job explaining the problems to them",0,"internal_global",2094818,9103,2,193,FALSE,1,1,"psychoed",2403155,1747924.39999998,2090959.79999995,64,3,"no","general performance (academic)","semi-social","Your neighbour asks you to help them with their maths homework, and you do a good job explaining the problems to them",1,1,1,0,0,0
"163","subCA1_3",47,"negative","0.0-20.0-0.10-0.10","html-button-response-ca","Everyone has different senses of humour","Someone you are close to tells you you are not funny",0,"external_global",2183540,7922,3,202,FALSE,1,10,"psychoed",2403155,1747924.39999998,2090959.79999995,64,3,"yes","close relationship","personal qualities","Someone you are close to tells you you are not funny",0,1,0,0,1,0
"164","subCA1_3",53,"positive","0.0-20.0-0.11-0.11","html-button-response-ca","In the past, I have helped out this particular colleage with some advice","Someone you work with tells you they trust your judgement",0,"internal_specific",2194670,9601,2,203,FALSE,1,11,"psychoed",2403155,1747924.39999998,2090959.79999995,64,3,"yes","colleagues","personal qualities","Someone you work with tells you they trust your judgement",1,0,0,1,0,0
"165","subCA1_3",55,"negative","0.0-20.0-0.12-0.12","html-button-response-ca","This person probably didn't remember this particular thing was told to them in confidence","Someone you care about deeply has disclosed something you told them in confidence to someone else",0,"external_specific",2206629,10438,3,204,FALSE,1,12,"psychoed",2403155,1747924.39999998,2090959.79999995,64,3,"yes","close relationship","reaching out","Someone you care about deeply has disclosed something you told them in confidence to someone else",0,0,0,0,0,1
"166","subCA1_3",56,"positive","0.0-20.0-0.13-0.13","html-button-response-ca","It is not uncommon for people to say kind things to people close to them","Someone you are close to tells you they consider you a role model",0,"external_global",2222058,13920,3,205,FALSE,1,13,"psychoed",2403155,1747924.39999998,2090959.79999995,64,3,"yes","close relationship","personal qualities","Someone you are close to tells you they consider you a role model",0,1,0,0,1,0
"167","subCA1_3",59,"negative","0.0-20.0-0.14-0.14","html-button-response-ca","It's not uncommon for people to let off steam by talking about their colleagues","You overhear someone at work talking about you behind your back",0,"external_global",2230042,6463,1,206,FALSE,1,14,"psychoed",2403155,1747924.39999998,2090959.79999995,64,3,"yes","colleagues","personal qualities","You overhear someone at work talking about you behind your back",0,1,0,0,1,0
"168","subCA1_3",61,"negative","0.0-20.0-0.15-0.15","html-button-response-ca","My presentation was probably at a difficult time (e.g., just before lunch)","You give a presentation at work and it seems like no one is paying attention",0,"external_specific",2238742,7188,2,207,FALSE,1,15,"psychoed",2403155,1747924.39999998,2090959.79999995,64,3,"no","general performance (job)","semi-social","You give a presentation at work and it seems like no one is paying attention",0,0,0,0,0,1
"169","subCA1_3",67,"negative","0.0-20.0-0.16-0.16","html-button-response-ca","Sometimes people are too busy or preocuppied to be as good a friend as they'd like","You ask a friend for help with something important but they say they are too busy",0,"external_global",2254289,12561,3,209,FALSE,1,16,"psychoed",2403155,1747924.39999998,2090959.79999995,64,3,"yes","friends","reaching out","You ask a friend for help with something important but they say they are too busy",0,1,0,0,1,0
"170","subCA1_3",73,"positive","0.0-20.0-0.17-0.17","html-button-response-ca","I'm good at my job","You receive an excellent performance evaluation from your boss",0,"internal_global",2259490,3683,0,210,FALSE,1,17,"psychoed",2403155,1747924.39999998,2090959.79999995,64,3,"no","formal assessment (job)","semi-social","You receive an excellent performance evaluation from your boss",1,1,1,0,0,0
"171","subCA1_3",75,"negative","0.0-20.0-0.18-0.18","html-button-response-ca","It is not uncommon for people to say unintendedly hurtful things to their friends","A friend tells you that you are being difficult",0,"external_global",2274874,13865,1,211,FALSE,1,18,"psychoed",2403155,1747924.39999998,2090959.79999995,64,3,"yes","friends","personal qualities","A friend tells you that you are being difficult",0,1,0,0,1,0
"172","subCA1_3",76,"negative","0.0-20.0-0.19-0.19","html-button-response-ca","Everyone probably scored low","You find out that colleague has scored you poorly on a a performance evaluation",0,"external_global",2285385,8979,0,212,FALSE,1,19,"psychoed",2403155,1747924.39999998,2090959.79999995,64,3,"no","formal assessment (job)","semi-social","You find out that colleague has scored you poorly on a a performance evaluation",0,1,0,0,1,0
"173","subCA1_3",25,"negative","0.0-20.0-0.2-0.2","html-button-response-ca","At the time, I probably wasn't concentrating enough on what I was doing","You start doing the washing up but drop and smash a plate",0,"internal_specific",2103358,7022,1,194,FALSE,1,2,"psychoed",2403155,1747924.39999998,2090959.79999995,64,3,"no","general functioning (everyday life: easier task)","self-care","You start doing the washing up but drop and smash a plate",1,0,0,1,0,0
"174","subCA1_3",77,"positive","0.0-20.0-0.20-0.20","html-button-response-ca","I'm smart and work hard","You find out you passed a difficult test for a professional qualification you wanted",0,"internal_global",2291885,4974,0,213,FALSE,1,20,"psychoed",2403155,1747924.39999998,2090959.79999995,64,3,"no","formal assessment (academic)","non-social","You find out you passed a difficult test for a professional qualification you wanted",1,1,1,0,0,0
"175","subCA1_3",78,"positive","0.0-20.0-0.21-0.21","html-button-response-ca","I'm a good friend","A friend tells you you are a good friend to them",0,"internal_global",2296818,3426,0,214,FALSE,1,21,"psychoed",2403155,1747924.39999998,2090959.79999995,64,3,"yes","friends","personal qualities","A friend tells you you are a good friend to them",1,1,1,0,0,0
"176","subCA1_3",83,"negative","0.0-20.0-0.22-0.22","html-button-response-ca","Other people aren't always very good at recognising each others' contributions","You aren't nominated for an award recognizing contribution to workplace culture",0,"external_global",2309878,11551,2,215,FALSE,1,22,"psychoed",2403155,1747924.39999998,2090959.79999995,64,3,"yes","colleagues","personal qualities","You aren't nominated for an award recognizing contribution to workplace culture",0,1,0,0,1,0
"177","subCA1_3",84,"positive","0.0-20.0-0.23-0.23","html-button-response-ca","Even people I don't know that well generally think well of me","Someone from work tells you they consider you trustworthy",0,"internal_global",2319589,8192,1,216,FALSE,1,23,"psychoed",2403155,1747924.39999998,2090959.79999995,64,3,"yes","colleagues","personal qualities","Someone from work tells you they consider you trustworthy",1,1,1,0,0,0
"178","subCA1_3",97,"negative","0.0-20.0-0.24-0.24","html-button-response-ca","Recently, I haven't been managing my time very well","You find yourself struggling to meet your targets at work",0,"internal_specific",2327039,5939,1,217,FALSE,1,24,"psychoed",2403155,1747924.39999998,2090959.79999995,64,3,"no","general performance (job)","non-social","You find yourself struggling to meet your targets at work",1,0,0,1,0,0
"179","subCA1_3",100,"negative","0.0-20.0-0.25-0.25","html-button-response-ca","This person is probably not able to respond right now (e.g., they are unwell or away)","Someone you care deeply about is not responding to your calls and messages",0,"external_specific",2334066,5519,0,218,FALSE,1,25,"psychoed",2403155,1747924.39999998,2090959.79999995,64,3,"yes","close relationship","reaching out","Someone you care deeply about is not responding to your calls and messages",0,0,0,0,0,1
"180","subCA1_3",102,"positive","0.0-20.0-0.26-0.26","html-button-response-ca","On this particular occasion, I had something important to say","A letter you have written to the newspaper is selected to be published",0,"internal_specific",2343821,8244,2,219,FALSE,1,26,"psychoed",2403155,1747924.39999998,2090959.79999995,64,3,"no","formal assessment (academic)","non-social","A letter you have written to the newspaper is selected to be published",1,0,0,1,0,0
"181","subCA1_3",108,"negative","0.0-20.0-0.27-0.27","html-button-response-ca","My friend thought I wasn't free on this specific date","You find out a friend is having a party but hasn't invited you",0,"external_specific",2355403,10068,0,220,FALSE,1,27,"psychoed",2403155,1747924.39999998,2090959.79999995,64,3,"yes","friends","reaching out","You find out a friend is having a party but hasn't invited you",0,0,0,0,0,1
"182","subCA1_3",110,"positive","0.0-20.0-0.28-0.28","html-button-response-ca","On this occasion, they are probably just being kind to me","Someone you are close to tells you they wish they were more like you",0,"external_specific",2372928,16014,0,221,FALSE,1,28,"psychoed",2403155,1747924.39999998,2090959.79999995,64,3,"yes","close relationship","personal qualities","Someone you are close to tells you they wish they were more like you",0,0,0,0,0,1
"183","subCA1_3",115,"positive","0.0-20.0-0.29-0.29","html-button-response-ca","People generally compliment their friends from time to time","A friend tells you you are a good person",0,"external_global",2383370,8925,2,222,FALSE,1,29,"psychoed",2403155,1747924.39999998,2090959.79999995,64,3,"yes","friends","personal qualities","A friend tells you you are a good person",0,1,0,0,1,0
"184","subCA1_3",28,"positive","0.0-20.0-0.3-0.3","html-button-response-ca","On this occasion, I made some good points","You speak during a neighbourhood association meeting and receive applause",0,"internal_specific",2112197,7319,3,195,FALSE,1,3,"psychoed",2403155,1747924.39999998,2090959.79999995,64,3,"yes","contemporaries (not known well)","feedback/responsibility","You speak during a neighbourhood association meeting and receive applause",1,0,0,1,0,0
"185","subCA1_3",120,"positive","0.0-20.0-0.30-0.30","html-button-response-ca","People generally reach out to their friends from time to time","A friend calls you up out of the blue to see how you are",0,"external_global",2390947,6061,1,223,FALSE,1,30,"psychoed",2403155,1747924.39999998,2090959.79999995,64,3,"yes","friends","reaching out","A friend calls you up out of the blue to see how you are",0,1,0,0,1,0
"186","subCA1_3",125,"negative","0.0-20.0-0.31-0.31","html-button-response-ca","I probably didn't spend enough time studying for the test","You find out that you didn't pass a test you took that counts towards a professional exam",0,"internal_specific",2403155,10699,2,224,FALSE,1,31,"psychoed",2403155,1747924.39999998,2090959.79999995,64,3,"no","formal assessment (academic)","non-social","You find out that you didn't pass a test you took that counts towards a professional exam",1,0,0,1,0,0
"187","subCA1_3",29,"positive","0.0-20.0-0.4-0.4","html-button-response-ca","I seem to click well with this particular person","A colleague tells you they like your company",0,"internal_specific",2120438,6735,2,196,FALSE,1,4,"psychoed",2403155,1747924.39999998,2090959.79999995,64,3,"yes","colleagues","personal qualities","A colleague tells you they like your company",1,0,0,1,0,0
"188","subCA1_3",31,"positive","0.0-20.0-0.5-0.5","html-button-response-ca","People I care about look up to me","Someone you are close to tells you that they admire you",0,"internal_global",2130095,8144,3,197,FALSE,1,5,"psychoed",2403155,1747924.39999998,2090959.79999995,64,3,"yes","close relationship","personal qualities","Someone you are close to tells you that they admire you",1,1,1,0,0,0
"189","subCA1_3",35,"positive","0.0-20.0-0.6-0.6","html-button-response-ca","I'm generally OK at this kind of puzzle","You complete today's crossword easily",0,"internal_specific",2140689,9081,0,198,FALSE,1,6,"psychoed",2403155,1747924.39999998,2090959.79999995,64,3,"no","general performance (academic)","non-social","You complete today's crossword easily",1,0,0,1,0,0
"190","subCA1_3",37,"negative","0.0-20.0-0.7-0.7","html-button-response-ca","This problem was too complicated to work out without writing everything out","You struggle to work out what everyone needs to pay when booking a work activity",0,"external_specific",2151849,9654,1,199,FALSE,1,7,"psychoed",2403155,1747924.39999998,2090959.79999995,64,3,"no","formal assessment (academic)","semi-social","You struggle to work out what everyone needs to pay when booking a work activity",0,0,0,0,0,1
"191","subCA1_3",44,"negative","0.0-20.0-0.8-0.8","html-button-response-ca","I haven't shown any interest in work events recently","You discover that you haven't been invited to an after-work social event",0,"internal_specific",2159014,5644,1,200,FALSE,1,8,"psychoed",2403155,1747924.39999998,2090959.79999995,64,3,"yes","colleagues","reaching out","You discover that you haven't been invited to an after-work social event",1,0,0,1,0,0
"192","subCA1_3",45,"negative","0.0-20.0-0.9-0.9","html-button-response-ca","On this occasion, people may have been preocuppied with something else (e.g., their own presentations)","You present your work to the rest of your evening class but it doesn't receive much positive feedback",0,"external_specific",2174099,13575,1,201,FALSE,1,9,"psychoed",2403155,1747924.39999998,2090959.79999995,64,3,"yes","contemporaries (not known well)","feedback/responsibility","You present your work to the rest of your evening class but it doesn't receive much positive feedback",0,0,0,0,0,1
"193","subCA1_4",0,"negative","0.0-2.0-0.0-0.0","html-button-response-ca","My friend was probably just in a bad mood and letting off steam","You find out that someone you consider a friend has talked about you negatively behind your back",0,"external_specific",159423,14809,0,3,FALSE,0,0,"psychoed",2124696,1652728.3,1949483.4,64,4,"yes","friends","personal qualities","You find out that someone you consider a friend has talked about you negatively behind your back",0,0,0,0,0,1
"194","subCA1_4",1,"positive","0.0-2.0-0.1-0.1","html-button-response-ca","People usually like to include me in things","Someone from work invites you out for a cup of coffee",0,"internal_global",177890,16950,1,4,FALSE,0,1,"psychoed",2124696,1652728.3,1949483.4,64,4,"yes","colleagues","reaching out","Someone from work invites you out for a cup of coffee",1,1,1,0,0,0
"195","subCA1_4",18,"negative","0.0-2.0-0.10-0.10","html-button-response-ca","Just now, there are probably more important things going on","You didn't get the amount of work done you needed to",0,"external_specific",324076,18883,1,13,FALSE,0,10,"psychoed",2124696,1652728.3,1949483.4,64,4,"no","general performance (job)","non-social","You didn't get the amount of work done you needed to",0,0,0,0,0,1
"196","subCA1_4",22,"negative","0.0-2.0-0.11-0.11","html-button-response-ca","My colleagues were probably meeting about a specific work project I'm not part of","You walk past a cafe close to work and see your some of your colleagues are meeting for lunch without you",0,"external_specific",336538,10942,0,14,FALSE,0,11,"psychoed",2124696,1652728.3,1949483.4,64,4,"yes","colleagues","reaching out","You walk past a cafe close to work and see your some of your colleagues are meeting for lunch without you",0,0,0,0,0,1
"197","subCA1_4",24,"positive","0.0-2.0-0.12-0.12","html-button-response-ca","This particular friend happens to have a similar sense of humour to me","A friend tells you you make them laugh",0,"external_specific",349806,11741,2,15,FALSE,0,12,"psychoed",2124696,1652728.3,1949483.4,64,4,"yes","friends","personal qualities","A friend tells you you make them laugh",0,0,0,0,0,1
"198","subCA1_4",32,"positive","0.0-2.0-0.13-0.13","html-button-response-ca","I'm the kind of friend people value","A friend tells you speaking with you always makes them feel better",0,"internal_global",360522,9212,3,16,FALSE,0,13,"psychoed",2124696,1652728.3,1949483.4,64,4,"yes","friends","personal qualities","A friend tells you speaking with you always makes them feel better",1,1,1,0,0,0
"199","subCA1_4",39,"positive","0.0-2.0-0.14-0.14","html-button-response-ca","Recently, I've been performing well in my job","You find out that you have been put forward for a leadership position at work",0,"internal_specific",371865,9832,3,17,FALSE,0,14,"psychoed",2124696,1652728.3,1949483.4,64,4,"no","formal assessment (job)","non-social","You find out that you have been put forward for a leadership position at work",1,0,0,1,0,0
"200","subCA1_4",41,"negative","0.0-2.0-0.15-0.15","html-button-response-ca","This time, my application was probably delayed for some reason","You submited an application to join a local community forum but haven't heard anything back",0,"external_specific",389022,15642,3,18,FALSE,0,15,"psychoed",2124696,1652728.3,1949483.4,64,4,"no","general functioning (everyday life: easier task)","getting along (semi-social)","You submited an application to join a local community forum but haven't heard anything back",0,0,0,0,0,1
"201","subCA1_4",43,"positive","0.0-2.0-0.16-0.16","html-button-response-ca","I'm a good friend and people appreciate that","Someone you are close to has sent you a card thanking you for being there for them during a difficult time",0,"internal_global",413020,14506,0,20,FALSE,0,16,"psychoed",2124696,1652728.3,1949483.4,64,4,"yes","close relationship","reaching out","Someone you are close to has sent you a card thanking you for being there for them during a difficult time",1,1,1,0,0,0
"202","subCA1_4",54,"positive","0.0-2.0-0.17-0.17","html-button-response-ca","On this particular occasion, I did a good job","You find out someone has contacted your employer to praise work you did for them",0,"internal_specific",423098,8572,1,21,FALSE,0,17,"psychoed",2124696,1652728.3,1949483.4,64,4,"no","general performance (job)","semi-social","You find out someone has contacted your employer to praise work you did for them",1,0,0,1,0,0
"203","subCA1_4",62,"positive","0.0-2.0-0.18-0.18","html-button-response-ca","I've been making a particular effort recently to spend time learning new things","You successfully practice saying some phrases of a new language you are trying to learn",0,"internal_specific",436948,12328,1,22,FALSE,0,18,"psychoed",2124696,1652728.3,1949483.4,64,4,"no","general functioning (everyday life: harder task)","life activities","You practice saying some phrases of a new language you are trying to learn",1,0,0,1,0,0
"204","subCA1_4",68,"positive","0.0-2.0-0.19-0.19","html-button-response-ca","I'm a trustworthy person","Someone you are close to tells you they trust you",0,"internal_global",445786,7314,0,23,FALSE,0,19,"psychoed",2124696,1652728.3,1949483.4,64,4,"yes","close relationship","personal qualities","Someone you are close to tells you they trust you",1,1,1,0,0,0
"205","subCA1_4",2,"negative","0.0-2.0-0.2-0.2","html-button-response-ca","My friend is probably just too busy to respond right now","You message your friend to ask for advice but they don't reply",0,"external_specific",193708,14306,0,5,FALSE,0,2,"psychoed",2124696,1652728.3,1949483.4,64,4,"yes","friends","reaching out","You message your friend to ask for advice but they don't reply",0,0,0,0,0,1
"206","subCA1_4",72,"negative","0.0-2.0-0.20-0.20","html-button-response-ca","It was probably something to do with the timing of that speech (e.g., it was nearing the end of the evening)","You speak during a community meeting but feel like people aren't interested in what you have to say",0,"external_specific",457799,10488,0,24,FALSE,0,20,"psychoed",2124696,1652728.3,1949483.4,64,4,"yes","contemporaries (not known well)","feedback/responsibility","You speak during a community meeting but feel like people aren't interested in what you have to say",0,0,0,0,0,1
"207","subCA1_4",74,"negative","0.0-2.0-0.21-0.21","html-button-response-ca","Something else probably came up as I was loading the machine","You washed your clothes on the wrong setting and the colours have run",0,"external_specific",471560,12251,0,25,FALSE,0,21,"psychoed",2124696,1652728.3,1949483.4,64,4,"no","general functioning (everyday life: easier task)","self-care","You washed your clothes on the wrong setting and the colours have run",0,0,0,0,0,1
"208","subCA1_4",79,"negative","0.0-2.0-0.22-0.22","html-button-response-ca","My friend was probably busy that day thinking about something else","You see a very close friend and wave at them but they don't wave back",0,"external_specific",483937,10857,3,26,FALSE,0,22,"psychoed",2124696,1652728.3,1949483.4,64,4,"yes","close relationship","reaching out","You see a very close friend and wave at them but they don't wave back",0,0,0,0,0,1
"209","subCA1_4",93,"positive","0.0-2.0-0.23-0.23","html-button-response-ca","I'm skilled at what I do","A colleague comments on the high quality of your recent work",0,"internal_global",494518,9058,2,27,FALSE,0,23,"psychoed",2124696,1652728.3,1949483.4,64,4,"no","general performance (job)","semi-social","A colleague comments on the high quality of your recent work",1,1,1,0,0,0
"210","subCA1_4",99,"negative","0.0-2.0-0.24-0.24","html-button-response-ca","Someone else probably campaigned to be nominated, so was put forward this time","You want to be nominated for a role in your local community group but no one suggests you",0,"external_specific",510994,14961,2,28,FALSE,0,24,"psychoed",2124696,1652728.3,1949483.4,64,4,"yes","contemporaries (not known well)","feedback/responsibility","You want to be nominated for a role in your local community group but no one suggests you",0,0,0,0,0,1
"211","subCA1_4",101,"positive","0.0-2.0-0.25-0.25","html-button-response-ca","Colleagues generally try and include everyone in team events","Someone from work tells you they would like to be on your team for a work social event",0,"external_global",522737,10225,2,29,FALSE,0,25,"psychoed",2124696,1652728.3,1949483.4,64,4,"yes","colleagues","reaching out","Someone from work tells you they would like to be on your team for a work social event",0,1,0,0,1,0
"212","subCA1_4",104,"positive","0.0-2.0-0.26-0.26","html-button-response-ca","People I'm close to have a lot of time for me","Someone you care about takes time out of their busy day to check in on you ",0,"internal_global",532359,8095,0,30,FALSE,0,26,"psychoed",2124696,1652728.3,1949483.4,64,4,"yes","close relationship","reaching out","Someone you care about takes time out of their busy day to check in on you",1,1,1,0,0,0
"213","subCA1_4",105,"negative","0.0-2.0-0.27-0.27","html-button-response-ca","On this occasion, I let myself be distracted by something unimportant","You forget you put dinner in the oven and it burns",0,"internal_specific",545800,11918,2,31,FALSE,0,27,"psychoed",2124696,1652728.3,1949483.4,64,4,"no","general functioning (everyday life: easier task)","self-care","You forget you put dinner in the oven and it burns",1,0,0,1,0,0
"214","subCA1_4",112,"negative","0.0-2.0-0.28-0.28","html-button-response-ca","People often carelessly say things about others when they think they can't hear them","You overhear a colleague telling someone else they don't like you",0,"external_global",559699,12384,1,32,FALSE,0,28,"psychoed",2124696,1652728.3,1949483.4,64,4,"yes","colleagues","personal qualities","You overhear a colleague telling someone else they don't like you",0,1,0,0,1,0
"215","subCA1_4",113,"positive","0.0-2.0-0.29-0.29","html-button-response-ca","I'm the sort of person who's opinion people value","A colleague tells you they particularly appreciate your feedback on their work, as it is valuable",0,"internal_global",571943,10718,1,33,FALSE,0,29,"psychoed",2124696,1652728.3,1949483.4,64,4,"yes","colleagues","personal qualities","A colleague tells you they particularly appreciate your feedback on their work, as it is valuable",1,1,1,0,0,0
"216","subCA1_4",3,"negative","0.0-2.0-0.3-0.3","html-button-response-ca","Usually people forget some things when they run errands","You return from the shops without something important from your shopping list",0,"external_global",207777,12553,1,6,FALSE,0,3,"psychoed",2124696,1652728.3,1949483.4,64,4,"no","general functioning (everyday life: harder task)","life activities","You return from the shops without something important from your shopping list",0,1,0,0,1,0
"217","subCA1_4",116,"positive","0.0-2.0-0.30-0.30","html-button-response-ca","I worked hard on a recent piece of work","You find out a colleague has nominated you for a performance award at work",0,"internal_specific",584127,10658,1,34,FALSE,0,30,"psychoed",2124696,1652728.3,1949483.4,64,4,"no","formal assessment (job)","semi-social","You find out a colleague has nominated you for a performance award at work",1,0,0,1,0,0
"218","subCA1_4",127,"positive","0.0-2.0-0.31-0.31","html-button-response-ca","People are generally interested in what I have to say","You present your work during your evening class and get lots of praise from your classmates",0,"internal_global",595214,9567,3,35,FALSE,0,31,"psychoed",2124696,1652728.3,1949483.4,64,4,"yes","contemporaries (not known well)","feedback/responsibility","You present your work during your evening class and get lots of praise from your classmates",1,1,1,0,0,0
"219","subCA1_4",5,"negative","0.0-2.0-0.4-0.4","html-button-response-ca","There are always times when life gets in the way of things we'd like to prioritise","You'd like to be more engaged in your local community",0,"external_global",221895,12599,3,7,FALSE,0,4,"psychoed",2124696,1652728.3,1949483.4,64,4,"no","general functioning (everyday life: harder task)","getting along (semi-social)","You'd like to be more engaged in your local community",0,1,0,0,1,0
"220","subCA1_4",7,"negative","0.0-2.0-0.5-0.5","html-button-response-ca","I probably didn't come up with a good enough idea this time","Your suggestion for a community social event receives the lowest number of votes",0,"internal_specific",242976,19555,1,8,FALSE,0,5,"psychoed",2124696,1652728.3,1949483.4,64,4,"yes","contemporaries (not known well)","feedback/responsibility","Your suggestion for a community social event receives the lowest number of votes",1,0,0,1,0,0
"221","subCA1_4",8,"positive","0.0-2.0-0.6-0.6","html-button-response-ca","People at work respect me","You receive anonymised feedback on your work performance by colleagues, and it's very complimentary",0,"internal_global",259742,15252,0,9,FALSE,0,6,"psychoed",2124696,1652728.3,1949483.4,64,4,"no","formal assessment (job)","non-social","You receive anonymised feedback on your work performance by colleagues, and it's very complimentary",1,1,1,0,0,0
